sensor,gyro_x,gyro_y,gyro_z,acce_x,acce_y,acce_z
MPU1,-16.00000,-12.59542,19.93893,-0.15259,0.12769,0.43799
MPU2,-16.61069,49.48092,60.56488,0.12378,0.20776,0.71973
MPU1,-10.59542,-6.29008,61.57252,-0.13110,-0.23169,0.71924
MPU2,-13.67939,7.78626,69.38931,0.00024,0.18188,0.57764
MPU1,-18.38168,-14.80916,37.69466,0.00928,-0.18042,0.64062
MPU2,-26.35114,35.23664,62.91603,0.21191,0.16333,0.66406
MPU1,-21.29771,21.06870,59.17557,0.13257,-0.22412,0.60156
MPU2,-42.51908,66.04580,53.48092,0.27148,0.16919,0.64478
MPU1,-23.93893,60.62595,59.40458,0.30273,-0.25098,0.61304
MPU2,-75.92367,114.15267,35.20611,0.37109,0.13257,0.73315
MPU1,-50.56488,99.14503,51.34351,0.34985,-0.37842,0.57104
MPU2,-111.40458,90.90076,-9.95420,0.33618,-0.01050,0.72949
MPU1,-37.08397,151.12978,28.04580,0.40356,-0.58667,0.60400
MPU2,-140.50381,146.93130,-49.22137,0.35059,-0.24365,1.06909
MPU1,-80.79389,114.45802,-22.79389,-0.03564,-0.86475,0.87207
MPU2,-142.48856,51.49618,-97.16031,0.17163,-0.41455,1.11646
MPU1,-95.92367,92.24428,-82.51908,0.11890,-1.12427,0.99048
MPU2,-128.56488,23.35878,-121.57252,0.24023,-0.62646,1.48462
MPU1,-96.90076,64.77863,-95.60305,-0.14941,-1.33984,1.28882
MPU2,-87.00764,14.77863,-138.87022,0.15601,-0.75317,1.67261
MPU1,-25.34351,88.56489,-128.53435,-0.06738,-1.73071,1.61011
MPU2,-9.26718,15.22137,-157.51144,-0.00391,-0.74512,1.69678
MPU1,32.50382,90.54962,-127.90839,-0.50269,-1.41431,1.41650
MPU2,53.28244,4.65649,-140.80916,-0.26270,-0.78735,1.65479
MPU1,82.36641,18.21374,-120.54962,-0.96094,-1.35303,1.55640
MPU2,110.38168,-33.95420,-102.10687,-0.46802,-0.68628,1.62720
MPU1,96.79389,-23.19084,-100.97710,-1.01685,-1.09546,1.24438
MPU2,143.11450,-62.71756,-60.87023,-0.53394,-0.53564,1.32129
MPU1,138.50381,-60.01527,-65.74046,-1.04297,-0.87109,0.97412
MPU2,152.80916,-59.52672,-11.83206,-0.48584,-0.38892,1.14551
MPU1,119.80153,-81.16031,-22.19847,-0.94653,-0.60791,0.72754
MPU2,159.64885,-57.34351,27.75573,-0.42603,-0.23584,0.82324
MPU1,138.27481,-51.19084,55.69466,-0.69824,-0.41577,0.51758
MPU2,153.60306,-3.61832,71.11450,-0.29028,-0.15405,0.71460
MPU1,119.81680,-94.58015,52.68702,-0.52051,-0.37085,0.47485
MPU2,148.91603,-27.20611,78.54962,-0.19458,-0.10034,0.48755
MPU1,102.76336,-66.48855,89.31298,-0.26978,-0.15552,0.21265
MPU2,115.55725,71.40458,98.88550,0.07520,-0.04224,0.48267
MPU1,32.71756,33.95420,124.76336,-0.00903,0.06274,-0.03906
MPU2,42.85496,101.09924,109.92367,0.05981,0.20142,0.24707
MPU1,2.74809,0.62595,134.80916,0.04907,-0.02954,0.28467
MPU2,13.12977,96.38168,122.88550,0.37842,0.20703,0.15771
MPU1,-2.16794,-13.17557,114.00000,0.42212,-0.16113,0.35107
MPU2,-17.61832,54.93130,110.93130,0.30249,0.15625,0.26489
MPU1,-25.19084,-8.71756,106.24428,0.33936,-0.11304,0.25488
MPU2,-44.48855,82.07633,104.99236,0.38818,0.12573,0.37109
MPU1,-41.19084,48.88550,102.03053,0.42310,-0.22754,0.28784
MPU2,-79.26717,67.54198,62.00000,0.09741,0.04468,0.45288
MPU1,-52.38168,48.44275,69.16031,-0.04663,-0.37549,0.42285
MPU2,-92.22900,62.21374,30.85496,0.26465,-0.08447,0.82983
MPU1,-75.66412,88.90076,37.95420,0.30884,-0.68799,0.71069
MPU2,-93.92367,103.02290,-23.00763,0.33789,-0.16040,0.98755
MPU1,-36.29008,94.25954,-38.48855,0.39233,-1.00659,1.13647
MPU2,-82.73283,48.16794,-81.75572,0.21826,-0.15430,1.13525
MPU1,-57.19084,91.69466,-71.11450,0.02100,-0.88892,0.89429
MPU2,-121.43511,102.58015,-110.77863,0.30640,-0.31909,1.41895
MPU1,-43.64885,182.91603,-47.83206,0.12744,-1.00098,0.94238
MPU2,-106.27481,58.12214,-133.26718,0.10718,-0.31470,1.31494
MPU1,-64.45802,93.48092,-124.96183,-0.14990,-1.03564,1.15308
MPU2,-93.11450,-3.66412,-151.28244,0.18628,-0.43384,1.53638
MPU1,-66.87023,61.20611,-126.12214,-0.23047,-1.39331,1.44995
MPU2,-38.27481,-26.25954,-159.20610,-0.03369,-0.45654,1.57227
MPU1,-14.38168,68.01527,-128.58015,-0.33301,-1.26294,1.33130
MPU2,21.80153,13.51145,-158.21375,-0.15552,-0.57422,1.63550
MPU1,88.97710,28.82443,-142.21375,-0.88257,-1.65674,1.59106
MPU2,96.96183,-30.96183,-126.41222,-0.45068,-0.69727,1.67432
MPU1,118.65649,15.57252,-86.77863,-1.10913,-1.14478,1.09790
MPU2,139.83206,-28.87023,-72.82442,-0.57812,-0.50269,1.42529
MPU1,132.39694,-43.43512,-49.69466,-1.22339,-0.99927,1.02295
MPU2,155.08397,-52.56488,-16.16794,-0.62207,-0.38135,1.21509
MPU1,151.40459,-38.54962,7.60305,-0.98901,-0.72485,0.70361
MPU2,148.94656,-13.11450,36.71756,-0.45923,-0.29810,0.97241
MPU1,112.90076,-76.76336,38.18320,-0.79932,-0.44409,0.53516
MPU2,142.30534,-27.37405,76.62595,-0.35254,-0.09766,0.65210
MPU1,117.16031,-57.69466,99.09924,-0.50464,-0.34595,0.34619
MPU2,116.44275,25.46565,104.99236,-0.10889,-0.01514,0.62500
MPU1,79.03817,-115.66412,71.54198,-0.33545,-0.27148,0.45679
MPU2,103.89313,-70.45802,111.55725,-0.09937,0.04980,0.48047
MPU1,61.69466,-65.41985,118.59542,-0.05957,-0.19995,0.35181
MPU2,77.43511,90.73283,124.65649,0.30981,0.15991,0.47046
MPU1,43.75573,-22.25954,163.12978,0.07935,-0.00488,0.23462
MPU2,18.25954,84.24428,134.35115,0.23901,0.20947,0.23291
MPU1,-32.19847,-5.55725,191.90840,-0.00952,0.10254,0.02759
MPU2,-34.50382,98.12214,139.46565,0.19897,0.06958,0.25391
MPU1,-26.39695,-14.38168,169.28244,0.32544,-0.36792,0.35376
MPU2,-46.91603,59.06870,116.91603,0.27637,0.08081,0.32422
MPU1,-68.59542,-2.25954,108.58015,0.42480,-0.18774,0.12500
MPU2,-73.37405,60.61069,93.20611,0.37793,-0.02417,0.52734
MPU1,-25.16031,36.25954,101.81680,0.33154,-0.61890,0.65674
MPU2,-83.72519,77.35878,55.11450,0.27734,-0.01978,0.62964
MPU1,-101.61832,42.30534,12.21374,0.28979,-0.48120,0.47485
MPU2,-88.87023,88.96183,0.97710,0.31201,-0.09155,0.83667
MPU1,-34.47328,119.19084,43.66412,0.09644,-0.70361,0.81763
MPU2,-80.61069,101.48092,-42.77863,0.14258,-0.16040,1.08350
MPU1,-41.83206,101.64886,-55.03817,0.17993,-0.96094,0.81641
MPU2,-75.61832,73.31298,-96.47328,0.09082,-0.38306,1.30811
MPU1,-20.04580,193.67938,-13.52672,0.05933,-0.90039,0.79272
MPU2,-64.80916,174.97710,-118.29008,0.12915,-0.32373,1.25049
MPU1,-27.77099,146.65649,-100.88550,-0.18042,-1.00391,1.04077
MPU2,-81.38931,40.58015,-143.43512,-0.04346,-0.41382,1.42554
MPU1,-61.66412,91.89313,-96.53435,-0.35962,-1.05273,1.09766
MPU2,-54.65649,-16.24427,-157.95419,-0.19507,-0.43848,1.48755
MPU1,-35.80153,43.28244,-160.53435,-0.49390,-1.35596,1.36182
MPU2,-15.14504,-23.93893,-161.48091,-0.10767,-0.54761,1.59375
MPU1,30.39695,90.59542,-113.98473,-0.52368,-1.37158,1.25342
MPU2,48.82443,24.71756,-148.19847,-0.29956,-0.64673,1.54004
MPU1,88.41222,47.87786,-138.09160,-0.76294,-1.42554,1.20483
MPU2,96.38168,-49.89313,-131.60306,-0.53442,-0.66064,1.40820
MPU1,130.87022,17.63359,-100.29008,-1.05737,-1.17969,0.97681
MPU2,125.81680,-21.90840,-81.96947,-0.60010,-0.59131,1.40723
MPU1,109.17558,-57.09924,-93.35878,-1.21118,-0.90234,0.83765
MPU2,139.06870,-99.75572,-26.99237,-0.62671,-0.38477,0.98560
MPU1,133.84734,-82.53435,-22.19847,-1.06030,-0.75000,0.71021
MPU2,135.49619,-69.03817,17.14504,-0.52417,-0.25171,0.99414
MPU1,104.44275,-86.97710,12.29008,-0.78198,-0.46216,0.57104
MPU2,131.14503,-36.76336,46.33588,-0.31812,-0.12378,0.89355
MPU1,111.81680,-73.08397,55.03817,-0.55103,-0.40869,0.56299
MPU2,122.65649,-11.19084,83.81680,-0.14941,-0.00635,0.61792
MPU1,84.04580,-64.19847,88.94656,-0.28809,-0.16943,0.35132
MPU2,95.34351,5.80153,97.37405,-0.07007,0.10742,0.58398
MPU1,74.93130,-81.25191,87.11450,-0.13257,-0.30444,0.51221
MPU2,93.87786,9.93893,101.92367,0.12720,0.18823,0.41309
MPU1,65.46565,-41.31298,129.74046,0.03271,0.01758,0.24072
MPU2,62.51908,75.16031,109.49619,0.23438,0.16992,0.47119
MPU1,44.24427,-35.63359,121.98473,0.16724,-0.13354,0.40186
MPU2,42.45802,27.61832,118.24428,0.16602,0.17749,0.19312
MPU1,9.45038,-40.77863,114.09161,0.23486,0.03735,0.12402
MPU2,11.23664,48.54962,107.49619,0.32690,0.18286,0.24658
MPU1,-39.51145,-15.37405,113.61832,0.29883,0.04272,0.12915
MPU2,-22.79389,70.64122,104.68702,0.35889,0.14990,0.38135
MPU1,-34.85496,3.55725,132.10687,0.18384,-0.28589,0.41089
MPU2,-48.87023,52.65649,89.74046,0.22095,0.08691,0.47046
MPU1,-79.31298,32.80916,99.70992,0.44019,-0.35059,0.34229
MPU2,-87.90839,94.54962,54.67176,0.30640,0.04810,0.62231
MPU1,-87.96947,55.28244,72.51908,0.26489,-0.58398,0.53857
MPU2,-99.05344,90.06107,20.76336,0.29639,-0.09058,0.91675
MPU1,-60.19847,120.01527,74.22900,0.36987,-0.75366,0.63623
MPU2,-108.61069,133.67938,-28.35114,0.32788,-0.19434,1.07666
MPU1,-54.54962,115.19084,-11.11450,0.29736,-1.05054,0.85645
MPU2,-88.15267,59.80153,-81.31298,0.08374,-0.36694,1.14453
MPU1,-19.78626,179.86259,0.39695,-0.02490,-1.08838,0.80054
MPU2,-90.25954,173.19084,-111.40458,0.17041,-0.36865,1.52930
MPU1,-33.52672,168.45801,-71.03817,-0.11279,-1.08862,0.87500
MPU2,-84.68702,35.83206,-142.29007,-0.18994,-0.45874,1.17163
MPU1,-67.05344,165.77100,-73.70992,-0.36328,-1.09717,0.82812
MPU2,-72.01527,96.83969,-153.93893,-0.04370,-0.43262,1.50781
MPU1,-40.77863,104.54962,-151.25191,-0.44873,-1.52905,1.21729
MPU2,-21.35878,-44.93130,-171.05344,-0.30054,-0.54321,1.49121
MPU1,12.25954,108.30534,-108.85497,-0.64819,-1.37598,1.06860
MPU2,22.77863,45.02290,-152.07634,-0.27588,-0.62646,1.68213
MPU1,68.54962,77.03817,-123.03817,-0.96509,-1.60815,1.19775
MPU2,89.19084,-40.01527,-127.41985,-0.67334,-0.69409,1.46118
MPU1,123.09924,13.67939,-108.10687,-1.21704,-1.34253,0.98340
MPU2,136.87022,-29.20611,-78.54962,-0.64941,-0.60278,1.47632
MPU1,155.45038,-42.03053,-72.22900,-1.21460,-1.14819,0.92871
MPU2,169.35878,-73.17558,-28.04580,-0.68262,-0.41187,1.08032
MPU1,169.32825,-54.82443,-18.76336,-1.10669,-0.79492,0.63452
MPU2,168.61069,-12.21374,17.98473,-0.54419,-0.27002,0.92944
MPU1,172.39694,-53.16031,20.10687,-0.90332,-0.48438,0.43799
MPU2,156.68703,-18.90076,54.80916,-0.51538,-0.10303,0.64380
MPU1,135.46565,-49.02290,70.97710,-0.73486,-0.17505,0.22632
MPU2,128.35115,41.86259,90.91603,-0.27100,0.04126,0.55151
MPU1,96.29008,-36.65649,131.52672,-0.44434,-0.11230,0.16821
MPU2,89.75572,58.73283,127.00764,-0.18872,0.18433,0.38892
MPU1,64.19847,-54.51908,131.03816,-0.25830,-0.03809,0.21094
MPU2,50.96183,18.06107,128.97710,-0.10913,0.19116,0.35254
MPU1,19.49618,-52.85496,142.50381,-0.08960,0.02075,0.19971
MPU2,3.38931,73.37405,139.87787,0.17871,0.17114,0.34692
MPU1,-30.32061,-12.76336,158.51909,0.14502,-0.04932,0.13892
MPU2,-37.51145,45.16031,125.98473,0.07764,0.11035,0.39453
MPU1,-63.32824,-44.29008,119.90839,0.04639,-0.27710,0.41089
MPU2,-58.19847,24.22901,121.28244,0.23267,0.04175,0.39844
MPU1,-91.63359,-49.25191,84.36641,0.20312,-0.25854,0.26416
MPU2,-85.58778,-26.21374,85.67939,0.01392,-0.05615,0.51147
MPU1,-85.90839,-24.65649,52.50382,0.11157,-0.51929,0.34595
MPU2,-107.58778,8.06107,78.67175,0.24780,-0.16724,0.81323
MPU1,-107.66412,-0.88550,36.41221,0.36792,-0.63770,0.55859
MPU2,-110.48855,26.45802,23.09924,0.40723,-0.14233,1.03979
MPU1,-71.38931,85.16031,34.21374,0.47217,-0.82373,0.79663
MPU2,-108.39695,86.56489,-6.48855,0.45605,-0.16748,1.06201
MPU1,-81.32825,84.32061,-31.75573,0.53784,-1.02710,0.98608
MPU2,-95.03817,64.83969,-89.38931,0.37158,-0.28516,1.02734
MPU1,-43.34351,151.03816,-41.81680,0.21997,-0.98706,0.77222
MPU2,-77.54198,73.63359,-108.21374,0.22314,-0.37891,1.16650
MPU1,-32.48855,117.46565,-73.55725,0.27905,-1.08276,0.81494
MPU2,-74.68702,80.48855,-132.87022,0.27490,-0.38354,1.39575
MPU1,-45.45038,83.72519,-97.77100,-0.15381,-1.05518,1.02856
MPU2,-75.26717,-16.64122,-142.77863,0.11133,-0.39575,1.26343
MPU1,-16.10687,-2.10687,-155.81679,0.01855,-1.34424,1.27466
MPU2,-37.70992,-34.61069,-145.74046,0.17236,-0.54639,1.64331
MPU1,-22.19847,26.83969,-114.07633,-0.38232,-1.25928,1.24683
MPU2,5.69466,-35.22137,-129.86259,-0.11475,-0.60034,1.54492
MPU1,61.19084,14.59542,-115.16031,-0.55151,-1.52319,1.44922
MPU2,66.41222,-52.59542,-99.70992,-0.25635,-0.69678,1.59399
MPU1,85.03817,-14.48855,-72.16794,-0.76709,-1.15918,1.18506
MPU2,109.52672,-30.07634,-59.70992,-0.27856,-0.51416,1.34888
MPU1,130.45801,-28.25954,-55.45038,-0.61182,-0.97656,1.06250
MPU2,122.36641,-37.78626,-29.37405,-0.20215,-0.28369,1.12012
MPU1,107.34351,-25.87786,-18.48855,-0.48364,-0.52441,0.70312
MPU2,113.08397,-29.14504,3.08397,-0.18506,-0.09595,0.90991
MPU1,90.24428,-47.00763,-8.79389,-0.44556,-0.35571,0.69458
MPU2,103.22137,4.68702,30.15267,-0.05493,-0.02197,0.92896
MPU1,58.85496,1.58779,55.54198,-0.34692,-0.27930,0.53931
MPU2,94.61069,-30.07634,68.45802,-0.29712,-0.01782,0.52393
MPU1,62.87023,-63.23664,71.19084,-0.41187,-0.14307,0.57959
MPU2,57.25191,-9.45038,109.52672,-0.05396,0.12134,0.74512
MPU1,45.45038,-114.65649,94.59542,-0.38403,-0.44360,0.72583
MPU2,76.19847,-10.48855,116.45802,0.14893,-0.02930,0.62744
MPU1,57.35878,-45.80153,121.78626,0.07349,-0.28540,0.20264
MPU2,56.45802,63.66412,119.89313,0.08789,-0.03516,0.37207
MPU1,38.45802,-24.44275,121.87786,0.11694,-0.23145,0.19165
MPU2,28.58015,63.52672,108.76336,0.32739,0.00977,0.29175
MPU1,14.97710,7.60305,107.38931,0.49634,-0.22729,0.16162
MPU2,-2.15267,69.92367,86.36641,0.41602,-0.02661,0.33179
MPU1,0.22901,45.37405,108.93130,0.41577,-0.26758,0.30371
MPU2,-22.03053,97.00764,54.07634,0.37671,0.04541,0.43896
MPU1,-14.47328,63.23664,57.51145,0.47534,-0.31421,0.33301
MPU2,-54.70229,59.31298,15.19084,0.28638,-0.07715,0.64233
MPU1,-31.26718,94.77863,42.82443,0.35596,-0.49219,0.60132
MPU2,-73.19084,90.41222,-21.02290,0.34399,-0.08447,0.92847
MPU1,-26.21374,107.28244,-7.66412,0.44897,-0.67407,0.83740
MPU2,-78.68702,90.73283,-66.13741,0.28345,-0.21191,1.12183
MPU1,-34.44275,120.45802,-10.01527,0.00073,-0.68188,0.81177
MPU2,-98.50381,118.74809,-74.76336,0.17651,-0.24731,1.21753
MPU1,-60.24427,130.59541,-39.02290,0.01367,-0.79297,0.90674
MPU2,-110.56489,55.03817,-105.25191,0.03516,-0.30127,1.23120
MPU1,-94.19847,113.38931,-64.07633,-0.24463,-1.05371,1.08887
MPU2,-86.64122,39.89313,-109.31298,0.06055,-0.50293,1.46802
MPU1,-56.99237,63.83206,-96.93130,-0.14795,-1.25806,1.31519
MPU2,-46.70229,-34.96183,-131.64885,-0.08789,-0.56226,1.43579
MPU1,-12.29008,40.44275,-125.84733,-0.21558,-1.36987,1.30420
MPU2,5.31298,-0.01527,-131.51144,-0.01392,-0.66553,1.53662
MPU1,30.41221,61.12977,-112.16794,-0.41919,-1.24463,1.19897
MPU2,49.43512,-21.49618,-122.70229,-0.29712,-0.67163,1.54199
MPU1,71.57252,-1.51145,-125.90839,-0.83008,-1.37402,1.41602
MPU2,96.70229,-43.48092,-90.39695,-0.38232,-0.60742,1.57324
MPU1,91.06870,-13.54198,-79.28244,-1.01587,-1.04419,1.14941
MPU2,116.64122,-62.39695,-44.79389,-0.61182,-0.41699,1.39062
MPU1,93.49619,-64.68702,-39.51145,-1.14502,-0.82178,1.17285
MPU2,149.51144,-89.61832,8.45802,-0.72534,-0.33203,1.31592
MPU1,140.13741,-135.77100,-24.42748,-1.13647,-0.86597,1.05518
MPU2,175.64885,-84.80916,45.11450,-0.45459,-0.21631,1.04004
MPU1,133.35878,-116.87023,17.70992,-0.70068,-0.41138,0.44824
MPU2,168.97710,-74.29008,73.64886,-0.29785,-0.08472,0.59155
MPU1,84.42748,-115.93893,42.04580,-0.37256,-0.19287,0.20654
MPU2,123.77100,-7.09924,77.80153,0.06421,-0.00024,0.37085
MPU1,85.90839,-85.43511,83.64886,0.05518,-0.17480,0.13940
MPU2,105.95420,-4.53435,101.72519,0.14429,0.15601,0.16553
MPU1,66.04580,-79.48092,80.71756,0.16040,0.03931,0.05396
MPU2,65.34351,19.78626,108.64122,0.30908,0.16626,0.10620
MPU1,31.64886,-65.96947,145.64885,0.07349,0.15430,0.02539
MPU2,18.48855,47.34351,127.86259,0.37622,0.16113,0.10669
MPU1,-4.62595,-52.50382,157.23665,0.31201,-0.01001,-0.04443
MPU2,-16.07634,64.91603,127.23664,0.34180,0.07520,0.31421
MPU1,-21.89313,-28.39695,128.44275,0.34058,-0.36230,0.24609
MPU2,-38.22901,42.00000,111.22137,0.25952,-0.01611,0.35474
MPU1,-37.22137,5.98473,125.32825,0.31201,-0.41284,0.28052
MPU2,-59.95420,85.45038,82.50381,0.43237,-0.04688,0.68896
MPU1,-37.11450,60.96183,93.58778,0.53540,-0.62183,0.46606
MPU2,-89.83206,107.31298,48.00000,0.52954,-0.11865,0.81763
MPU1,-49.90840,115.87786,88.79389,0.56323,-0.83521,0.55078
MPU2,-88.30534,130.68703,-15.70992,0.46436,-0.22485,1.01392
MPU1,-20.15267,161.52672,32.71756,0.66357,-1.03589,0.75806
MPU2,-64.80916,172.54962,-78.51908,0.46313,-0.36816,1.23901
MPU1,-8.64122,182.38168,-14.87023,0.25244,-1.17627,0.82324
MPU2,-62.00000,154.48856,-110.70229,0.27197,-0.37866,1.29956
MPU1,0.65649,222.58015,-7.16031,-0.04272,-0.95752,0.72974
MPU2,-72.65649,94.42748,-129.06870,0.00610,-0.38647,1.22388
MPU1,-53.61832,97.03817,-124.00000,-0.15161,-1.05151,1.01074
MPU2,-74.29008,26.73282,-143.95419,0.11328,-0.42261,1.55615
MPU1,-74.76336,152.64122,-63.14504,-0.33984,-1.14087,0.92627
MPU2,-42.44275,55.63359,-131.95419,-0.21729,-0.50708,1.45630
MPU1,-6.96183,49.67939,-140.04581,-0.55054,-1.52563,1.42773
MPU2,19.25191,-59.67939,-139.14503,-0.34961,-0.53589,1.57910
MPU1,54.42748,44.41221,-98.36641,-0.83154,-1.39990,1.21729
MPU2,69.81680,-14.24428,-98.35114,-0.39868,-0.61255,1.50488
MPU1,93.32825,-2.50382,-96.62595,-0.93018,-1.24780,1.09888
MPU2,109.95420,-66.01527,-69.52672,-0.51807,-0.45972,1.30640
MPU1,117.22137,-41.41985,-74.58015,-0.84717,-0.94873,0.93140
MPU2,124.32061,-73.05344,-37.81680,-0.39673,-0.29492,1.19214
MPU1,123.28244,-64.27481,-60.82443,-0.68921,-0.77783,0.81567
MPU2,126.77863,-69.93893,-9.34351,-0.31616,-0.20435,1.02539
MPU1,123.11450,-74.83969,-26.38168,-0.64600,-0.56274,0.67773
MPU2,123.23664,-57.43512,19.63359,-0.29102,-0.06348,0.85693
MPU1,107.58778,-72.47328,-1.96947,-0.51514,-0.38989,0.56421
MPU2,113.92367,-40.32061,40.82443,-0.17310,-0.00098,0.74805
MPU1,103.90839,-52.91603,54.54962,-0.35596,-0.28491,0.55493
MPU2,102.24428,38.62595,75.69466,0.06641,0.03320,0.65625
MPU1,80.00000,-90.44275,59.48092,-0.21753,-0.32495,0.58374
MPU2,102.73283,-46.06107,79.22137,-0.11011,0.13184,0.50659
MPU1,91.57252,-57.57252,89.09924,-0.15259,-0.16162,0.50732
MPU2,87.78626,32.50382,97.81680,0.16553,0.24438,0.54761
MPU1,65.86259,-59.43512,96.41222,0.05737,0.00098,0.39868
MPU2,50.88550,23.40458,112.27481,0.22095,0.29468,0.39844
MPU1,27.96947,-34.47328,121.66412,0.18115,0.02686,0.32104
MPU2,14.16794,67.29771,114.74809,0.28931,0.26953,0.33325
MPU1,31.75573,-18.56489,131.67938,0.18677,-0.07031,0.32129
MPU2,-19.00763,12.47328,118.07633,0.20264,0.18823,0.17676
MPU1,-57.29771,-30.96183,73.83206,0.44458,0.00903,0.11279
MPU2,-54.03053,60.42748,90.85497,0.46240,0.09375,0.56250
MPU1,-38.54962,50.10687,133.74046,0.20654,-0.26172,0.40063
MPU2,-82.80916,87.19084,84.53435,0.35059,0.06763,0.59302
MPU1,-89.86259,32.62595,52.04580,0.49854,-0.48022,0.50708
MPU2,-103.03817,74.19847,40.25954,0.40991,-0.07202,0.81665
MPU1,-75.92367,88.33588,66.10687,0.26440,-0.66333,0.63770
MPU2,-96.61069,89.02290,-2.91603,0.32104,-0.19727,0.99121
MPU1,-62.79389,101.46565,12.00000,0.38989,-0.93896,0.83813
MPU2,-96.24428,85.11450,-49.67939,0.29565,-0.28906,0.95630
MPU1,-59.63359,135.77100,-11.14504,0.44214,-0.84790,0.68359
MPU2,-92.12214,166.00000,-94.67175,0.46899,-0.35449,1.28638
MPU1,-37.29771,193.00763,-17.69466,0.08594,-0.98022,0.74097
MPU2,-82.21374,146.24428,-122.30534,0.16455,-0.49316,1.31104
MPU1,-35.28244,206.64122,-41.43512,-0.20239,-1.15112,0.85474
MPU2,-69.63359,110.41222,-143.37404,-0.03638,-0.49536,1.23096
MPU1,-38.65649,127.83206,-96.10687,-0.42114,-1.17114,0.92627
MPU2,-55.32824,57.90840,-150.09160,-0.12793,-0.59668,1.32617
MPU1,-9.98473,156.67175,-70.36641,-0.43970,-1.21851,0.94019
MPU2,-3.43511,23.78626,-145.00763,-0.37842,-0.68188,1.37231
MPU1,22.48855,6.01527,-170.25954,-0.91675,-1.45386,1.27173
MPU2,50.03053,-50.82443,-134.82443,-0.38550,-0.69336,1.59424
MPU1,81.26717,47.64885,-84.87023,-0.98022,-1.37964,1.15112
MPU2,95.29771,-10.44275,-83.75572,-0.53833,-0.68701,1.46240
MPU1,105.78626,-45.64885,-87.37405,-1.17065,-1.18188,1.05640
MPU2,127.28244,-74.61069,-48.47328,-0.59497,-0.53027,1.40039
MPU1,132.21375,-70.18320,-63.60305,-0.95044,-1.09204,1.04248
MPU2,151.26718,-88.85497,-20.53435,-0.45410,-0.36792,1.16870
MPU1,147.98473,-91.09924,-39.86259,-0.81592,-0.74146,0.77881
MPU2,151.26718,-63.43512,9.40458,-0.33154,-0.18579,0.96729
MPU1,137.23665,-78.06107,-11.81679,-0.56152,-0.50879,0.55225
MPU2,139.12978,-35.06870,29.40458,-0.24512,-0.06641,0.67432
MPU1,133.32825,-44.18320,23.96947,-0.40942,-0.26001,0.34521
MPU2,118.38168,-27.61832,42.83969,-0.17407,0.11133,0.72363
MPU1,96.42748,-77.38931,0.04580,-0.28271,-0.19189,0.56030
MPU2,112.94656,-26.48855,53.54198,0.09961,0.08423,0.59937
MPU1,110.27481,-18.94657,84.45802,-0.10132,-0.16602,0.48462
MPU2,98.96183,48.94656,70.77863,0.08203,0.18506,0.53003
MPU1,75.52672,-12.03053,91.86259,-0.08618,0.00635,0.42310
MPU2,64.48855,54.61069,93.29771,0.08423,0.21069,0.47290
MPU1,52.80916,7.11450,129.48091,0.03711,-0.03174,0.39502
MPU2,23.78626,85.48092,101.61832,0.15625,0.24756,0.42603
MPU1,11.05344,29.14504,137.43512,0.14551,0.01636,0.22876
MPU2,-49.81680,107.58778,95.69466,0.21655,0.25586,0.21167
MPU1,-91.35878,77.38931,133.75572,0.26123,0.25366,-0.08545
MPU2,-108.10687,113.25191,87.78626,0.34058,0.12061,0.38379
MPU1,-113.80153,57.83206,108.35114,0.20825,-0.38550,0.45337
MPU2,-115.86259,87.03817,73.05344,0.27637,-0.02100,0.39429
MPU1,-107.05344,69.25191,71.22137,0.30273,-0.31030,0.33667
MPU2,-117.45038,74.58015,29.45038,0.20459,-0.07495,0.71704
MPU1,-100.64122,48.13741,22.70229,0.05933,-0.79663,0.76611
MPU2,-82.85497,42.13741,0.88550,0.05127,-0.25439,0.83594
MPU1,-50.94656,79.37405,5.95420,0.02832,-0.65112,0.68457
MPU2,-70.13741,34.35115,-49.80153,-0.09692,-0.22778,1.08496
MPU1,-15.95420,69.35878,-70.16794,0.01367,-1.09302,1.18164
MPU2,-36.25954,102.19847,-90.97710,0.19678,-0.34644,1.24951
MPU1,-6.53435,152.41222,-64.16794,0.00586,-0.80859,0.79639
MPU2,-48.65649,117.57252,-124.68702,-0.04810,-0.33838,1.37305
MPU1,-10.93130,139.93893,-83.35878,-0.32886,-0.97314,1.07446
MPU2,-54.50382,22.38168,-143.55725,-0.20215,-0.29150,1.38599
MPU1,-42.94656,67.09924,-131.70993,-0.44482,-0.93213,1.15649
MPU2,-50.18320,-10.03053,-137.84734,-0.09790,-0.44531,1.74194
MPU1,4.90076,16.58015,-138.22900,-0.58496,-1.44482,1.73315
MPU2,20.65649,-69.35878,-138.65649,-0.31323,-0.57764,1.77856
MPU1,49.16031,7.17557,-112.00000,-0.75610,-1.31396,1.43872
MPU2,75.96947,-15.46565,-102.06107,-0.33936,-0.65234,1.68579
MPU1,114.56489,11.63359,-90.39695,-0.83960,-1.31494,1.34155
MPU2,121.60305,-45.05344,-79.51145,-0.44287,-0.47339,1.43774
MPU1,117.51145,-30.04580,-51.43512,-0.98853,-0.82910,0.94897
MPU2,132.39694,-50.70229,-32.80916,-0.60059,-0.37842,0.65649
MPU1,138.32062,-68.88550,-43.58779,-0.88647,-0.89404,0.91284
MPU2,142.71756,-77.80153,-4.65649,-0.48486,-0.21338,0.96899
MPU1,124.09161,-71.38931,0.85496,-0.80151,-0.37061,0.54053
MPU2,130.58015,-17.37405,36.59542,-0.29639,-0.08667,0.90088
MPU1,93.54198,-21.74046,64.16794,-0.51440,-0.25195,0.44775
MPU2,100.53435,1.02290,73.96947,-0.30566,0.04541,0.49316
MPU1,47.75573,-64.61069,81.09924,-0.56470,0.08691,0.32886
MPU2,56.73283,-21.08397,99.37405,-0.19751,0.24780,0.61328
MPU1,7.00763,-84.16794,84.97710,-0.19092,-0.18164,0.50415
MPU2,60.76336,-4.96183,94.29008,0.01660,0.13232,0.38037
MPU1,63.61832,-52.65649,98.01527,-0.05176,-0.20703,0.48584
MPU2,52.35115,30.13741,106.30534,0.10889,0.09814,0.46021
MPU1,20.32061,-24.00000,132.39694,-0.08569,-0.04907,0.26440
MPU2,31.74046,58.38168,123.09924,0.14429,0.07080,0.34180
MPU1,19.08397,-38.99237,111.38931,0.18848,-0.21045,0.38574
MPU2,15.51145,24.16794,111.51145,0.28857,0.10718,0.36230
MPU1,-14.01527,-18.67175,109.75572,0.30615,-0.06055,0.20630
MPU2,-20.41221,68.74809,105.89313,0.37524,0.10034,0.55688
MPU1,-53.57252,1.02290,115.19084,0.25391,-0.18921,0.43677
MPU2,-43.93893,24.42748,83.06870,0.23047,0.12817,0.62671
MPU1,-116.12214,-5.23664,84.29008,0.28735,-0.27930,0.43481
MPU2,-87.22137,130.16794,67.32825,0.55273,0.11841,0.81030
MPU1,-110.82442,86.29008,91.03817,0.42871,-0.48389,0.53149
MPU2,-109.29771,69.16031,12.29008,0.12817,-0.01416,0.73389
MPU1,-84.18320,41.89313,14.45802,0.06665,-0.89038,0.89111
MPU2,-85.86259,85.98473,-11.70992,0.32861,-0.17383,0.87769
MPU1,-53.84733,128.39694,41.74046,0.12598,-0.52173,0.39062
MPU2,-104.50381,71.63359,-71.58778,-0.13501,-0.25635,0.94214
MPU1,-45.19084,103.58778,-56.24427,0.12061,-1.09399,0.82715
MPU2,-86.10687,116.50381,-92.39695,0.30884,-0.44409,1.05396
MPU1,-72.76336,228.80916,-21.52672,0.14087,-0.89380,0.36890
MPU2,-96.07633,126.44275,-142.22900,0.01221,-0.48047,1.24878
MPU1,-41.28244,164.53435,-66.47328,-0.34937,-1.49731,1.12231
MPU2,-57.29771,81.41985,-150.39694,-0.05200,-0.57983,1.63794
MPU1,-39.95420,87.48092,-131.58778,-0.53760,-1.34595,1.16235
MPU2,-33.61832,-86.01527,-167.74046,-0.37720,-0.48730,1.55908
MPU1,3.29771,80.00000,-117.93893,-0.63940,-1.61230,1.31738
MPU2,19.66412,16.16794,-140.80916,-0.21558,-0.65918,1.77100
MPU1,27.43511,28.91603,-118.39695,-0.85547,-1.41821,1.09888
MPU2,51.83206,-4.56489,-119.78626,-0.60693,-0.69995,1.78784
MPU1,112.90076,19.12977,-88.71756,-1.37451,-1.89062,1.52808
MPU2,160.44275,-73.46565,-45.80153,-0.74097,-0.74023,1.26587
MPU1,166.70229,-36.01527,-35.95420,-1.10571,-1.10449,0.62329
MPU2,171.38931,-21.41985,2.13740,-0.51562,-0.45703,1.12598
MPU1,168.51909,-70.50381,3.41985,-0.92725,-0.80542,0.56494
MPU2,168.09160,-27.23664,41.05344,-0.45508,-0.23511,0.83374
MPU1,160.27481,-72.85497,29.55725,-0.67993,-0.56665,0.39893
MPU2,155.05344,-51.11450,65.14503,-0.39087,-0.10059,0.63599
MPU1,143.96947,-87.84733,52.51908,-0.47656,-0.32568,0.35522
MPU2,144.96184,-16.07634,85.74046,-0.07666,0.06470,0.67529
MPU1,65.72519,-97.72519,77.78626,-0.17480,-0.24072,0.56982
MPU2,132.07634,23.84733,69.11450,0.10669,0.27905,0.67822
MPU1,96.15267,-44.45802,31.58779,0.21875,-0.29834,0.61670
MPU2,91.57252,25.19084,67.23664,-0.05835,0.28003,0.36646
MPU1,32.36641,-32.00000,68.12214,-0.41724,0.32935,0.11255
MPU2,85.28244,42.24427,129.95419,-0.02246,-0.48755,-0.60791
MPU1,-11.54198,-62.65649,122.45802,-0.33960,0.22827,0.07593
MPU2,-38.90076,2.67176,120.51908,-0.13037,0.27856,0.26392
MPU1,-32.67176,-60.25954,101.16031,0.17920,-0.16504,0.21289
MPU2,-40.82443,21.16031,122.85497,0.25854,0.02026,0.23730
MPU1,-78.04580,-53.02290,106.03053,0.26733,-0.16699,-0.02319
MPU2,-83.09924,24.77863,98.70229,0.28027,-0.06934,0.38428
MPU1,-72.50381,-22.36641,76.32061,0.33057,-0.48633,0.32031
MPU2,-86.94656,13.75572,82.97710,0.43506,-0.22168,0.58179
MPU1,-121.08397,7.55725,60.51908,0.70776,-0.75391,0.30078
MPU2,-112.48855,60.12214,36.21374,0.56250,-0.17212,0.86548
MPU1,-82.80916,58.07634,74.80916,0.43823,-0.84106,0.61987
MPU2,-112.53435,77.67939,-5.95420,0.38135,-0.20898,1.23462
MPU1,-62.06107,101.83206,38.24427,0.40405,-1.16138,0.82861
MPU2,-62.33588,108.59542,-32.53435,0.33154,-0.53540,0.92432
MPU1,-59.38931,80.97710,-22.30534,0.23438,-1.08691,0.67847
MPU2,-101.81680,22.83969,-70.76336,0.22437,-0.47437,1.12573
MPU1,-33.40458,93.03817,-5.41985,0.09448,-1.16260,0.82080
MPU2,-96.00000,54.91603,-92.50381,0.21338,-0.44531,1.34863
MPU1,-46.09160,100.64122,-56.09160,0.05469,-1.18213,0.78711
MPU2,-80.64122,19.35878,-106.59542,0.11401,-0.55347,1.45117
MPU1,-30.68702,81.60305,-63.60305,-0.16895,-1.39868,1.22168
MPU2,-44.36641,13.17557,-112.90076,0.13599,-0.49365,1.50708
MPU1,0.36641,55.92366,-105.22137,-0.08496,-1.26709,1.21509
MPU2,-1.26718,-21.32825,-113.87786,0.04004,-0.51172,1.62207
MPU1,41.20611,43.69466,-82.35114,-0.42529,-1.41016,1.48267
MPU2,61.52672,-22.15267,-94.77863,-0.08423,-0.48779,1.53906
MPU1,71.28244,3.09924,-81.17558,-0.44678,-1.12280,1.23340
MPU2,97.14503,-33.55725,-80.44275,-0.13818,-0.34131,1.39160
MPU1,121.19084,-7.63359,-65.78626,-0.52637,-0.98315,1.10767
MPU2,108.58015,-19.81679,-46.24427,-0.12744,-0.23682,1.22144
MPU1,98.94656,-35.05344,-48.71756,-0.55005,-0.63208,0.85352
MPU2,105.38931,-46.87023,-23.80153,-0.23071,-0.11938,0.96216
MPU1,96.45802,-33.26717,-14.68702,-0.48364,-0.41626,0.67041
MPU2,95.77100,-14.94656,9.45038,-0.12085,-0.05859,0.88696
MPU1,71.58778,-67.31298,-4.96183,-0.47192,-0.39282,0.71729
MPU2,94.85497,-64.09161,30.65649,-0.16382,-0.04395,0.71777
MPU1,74.50381,-72.32061,68.24428,-0.39795,-0.27222,0.60889
MPU2,80.56489,62.24427,81.26717,0.09326,-0.36621,0.84180
MPU1,95.70992,-47.34351,81.41985,-0.30518,-0.24341,0.42334
MPU2,62.88550,3.46565,87.87786,-0.20410,0.03735,0.42773
MPU1,26.61069,-51.98473,100.04580,-0.34106,0.00562,0.12744
MPU2,33.52672,24.18321,112.82442,-0.00439,-0.00586,0.35938
MPU1,22.35114,-54.71756,93.26717,0.05664,-0.27905,0.32300
MPU2,23.29771,22.79389,103.37405,0.20605,-0.02002,0.40112
MPU1,0.25954,-8.09160,115.08397,0.17603,-0.19702,0.17773
MPU2,-10.85496,75.75572,104.77863,0.29517,-0.05176,0.49146
MPU1,-31.84733,3.95420,102.19847,0.22339,-0.43359,0.33472
MPU2,-33.41985,63.26717,86.24428,0.34082,-0.14624,0.55908
MPU1,-38.16794,39.05344,97.98473,0.31665,-0.51196,0.35596
MPU2,-65.14503,65.25191,54.03053,0.27588,-0.12769,0.75732
MPU1,-55.64885,61.03817,78.16794,0.29883,-0.68262,0.62915
MPU2,-64.53435,114.70229,29.95420,0.47485,-0.23047,0.90991
MPU1,-49.58779,72.25954,38.19847,0.34692,-0.83350,0.71753
MPU2,-90.48855,59.81680,-14.65649,0.26245,-0.27051,1.05859
MPU1,-47.08397,85.80153,12.65649,0.34229,-1.04565,0.87231
MPU2,-76.48855,79.81680,-57.77099,0.33154,-0.39160,1.31787
MPU1,-30.97710,111.37405,-19.49618,0.07983,-1.04932,0.87500
MPU2,-63.87786,70.32061,-80.97710,0.20117,-0.44312,1.46484
MPU1,-38.03053,74.32061,-66.19847,-0.00049,-1.24902,1.15918
MPU2,-48.64122,1.80153,-108.73283,0.18896,-0.40454,1.50903
MPU1,-33.63359,85.08397,-71.72519,0.04297,-1.14307,1.15674
MPU2,-22.65649,7.80153,-123.20611,0.19385,-0.39014,1.56421
MPU1,5.22137,58.15267,-128.09160,0.00098,-1.43726,1.39771
MPU2,17.00763,-48.62595,-142.94656,-0.06201,-0.39966,1.60522
MPU1,46.87023,24.94657,-129.75572,-0.56812,-1.25488,1.32495
MPU2,56.74809,-52.10687,-116.65649,-0.20752,-0.39526,1.54810
MPU1,60.27481,-6.64122,-109.51145,-0.68555,-0.98047,1.15063
MPU2,77.83206,-67.16031,-97.11450,-0.29419,-0.25659,1.33521
MPU1,88.07633,-33.54198,-120.42748,-0.59424,-0.93115,1.12109
MPU2,89.86259,-76.27481,-70.67175,-0.21997,-0.14844,1.17651
MPU1,86.67175,-42.44275,-86.04580,-0.61768,-0.59546,0.85010
MPU2,93.90839,-73.92367,-45.66412,-0.26318,-0.07812,1.00220
MPU1,96.03053,-50.50382,-83.19084,-0.39722,-0.54468,0.82129
MPU2,99.54198,-65.96947,-21.51145,-0.15015,-0.00269,0.79102
MPU1,103.51145,-58.22901,-38.62595,-0.41846,-0.32690,0.67700
MPU2,94.01527,-32.77863,2.96183,0.01831,0.05981,0.82764
MPU1,98.94656,-41.14504,-3.45038,-0.15527,-0.31250,0.74512
MPU2,99.61832,-16.65649,14.64122,0.05103,0.10059,0.69067
MPU1,95.63359,-24.54962,27.49618,-0.12256,-0.18726,0.65063
MPU2,95.70992,20.93130,41.25191,0.10962,0.19824,0.69556
MPU1,89.17558,-19.28244,61.25191,-0.12378,-0.09644,0.59888
MPU2,79.26717,33.63359,69.77100,0.08716,0.21265,0.62280
MPU1,44.13741,-26.35114,82.80916,-0.08325,0.00586,0.55127
MPU2,60.13741,53.67939,84.03053,0.15601,0.24194,0.61743
MPU1,35.43512,-27.23664,106.82442,-0.01538,-0.13989,0.61084
MPU2,27.78626,63.08397,112.06107,0.25513,0.18042,0.55444
MPU1,15.70992,-0.06107,144.70229,0.09277,-0.18896,0.39185
MPU2,18.67175,60.38168,119.93893,0.10547,0.08447,0.36475
MPU1,2.64122,-43.95420,131.29771,0.08838,-0.15552,0.34033
MPU2,-3.37405,56.68702,130.58015,0.39185,0.18481,0.39600
MPU1,-45.09924,-15.37405,130.73282,0.55640,-0.15332,0.16333
MPU2,-25.46565,64.42748,84.03053,0.33838,0.15820,0.30737
MPU1,-48.74809,3.93893,96.93130,0.31396,-0.23584,0.39502
MPU2,-59.49618,90.13741,75.70992,0.53711,0.05566,0.57495
MPU1,-51.08397,65.00764,110.41222,0.51855,-0.38184,0.39258
MPU2,-111.64886,80.76336,33.92366,0.35376,0.02368,0.87744
MPU1,-49.00763,80.76336,63.41985,0.45312,-0.83398,0.68750
MPU2,-63.08397,106.24428,7.78626,0.49951,-0.23706,0.89136
MPU1,-48.77863,92.97710,14.42748,0.48462,-0.89233,0.70190
MPU2,-94.97710,64.79389,-53.63359,0.29810,-0.29199,0.98462
MPU1,-46.68702,100.09161,-20.07634,0.20190,-1.04932,0.81665
MPU2,-94.73283,80.58015,-87.89313,0.28589,-0.37915,1.22656
MPU1,-8.19847,78.33588,-89.41985,0.13867,-1.13867,1.13379
MPU2,-79.31298,36.76336,-132.70229,0.37134,-0.36841,1.43384
MPU1,-29.29771,178.07634,-70.64122,0.12646,-1.03906,0.97021
MPU2,-67.06870,43.35878,-137.06870,0.05103,-0.40771,1.41675
MPU1,-45.98473,58.56488,-124.76336,-0.19263,-1.04102,1.19971
MPU2,-55.34351,5.09924,-136.12213,0.16064,-0.36255,1.55640
MPU1,-55.90840,50.24427,-115.22137,-0.27563,-1.06226,1.18408
MPU2,-20.41221,-37.60305,-133.64885,-0.08008,-0.40845,1.43042
MPU1,11.64886,31.81679,-115.74046,-0.39624,-1.20312,1.39697
MPU2,25.70992,-29.40458,-114.96183,-0.06226,-0.45483,1.61060
MPU1,24.88550,14.42748,-102.48855,-0.48535,-1.10132,1.29736
MPU2,70.12214,-46.06107,-94.58015,-0.21924,-0.41406,1.40747
MPU1,99.38931,-10.47328,-87.80153,-0.59668,-1.09180,1.29077
MPU2,107.48092,-41.81680,-65.09924,-0.16724,-0.30713,1.36743
MPU1,88.91603,-41.67939,-70.67175,-0.51953,-0.75098,1.03467
MPU2,112.54962,-53.54198,-37.45038,-0.17480,-0.17944,1.08032
MPU1,120.24428,-35.80153,-27.46565,-0.52246,-0.63257,0.86255
MPU2,110.77863,-16.79389,-3.64885,-0.21265,-0.11060,0.95850
MPU1,101.61832,-44.04580,-4.73282,-0.54321,-0.37354,0.64966
MPU2,101.17558,-36.54962,25.49618,-0.17285,-0.00732,0.82153
MPU1,95.83206,-25.25191,44.50382,-0.25757,-0.36304,0.65771
MPU2,111.52672,38.97710,51.93893,0.00488,-0.00049,0.67871
MPU1,113.87786,-51.35878,36.59542,-0.22412,-0.32178,0.66309
MPU2,97.96947,-19.90840,63.43512,-0.03735,0.13281,0.51001
MPU1,81.06870,-35.03817,87.57252,-0.17480,-0.01221,0.35938
MPU2,79.75572,54.48855,97.17558,0.16357,0.16040,0.44238
MPU1,107.22137,-76.85497,50.68702,0.10742,-0.33057,0.58643
MPU2,81.75572,-86.10687,77.89313,-0.18018,0.10376,0.34937
MPU1,94.76336,-36.41221,90.85497,-0.18042,0.03564,0.24585
MPU2,60.01527,87.26717,119.43511,0.31909,0.20581,0.40869
MPU1,28.19847,-4.93130,126.53435,0.26831,0.22974,0.18286
MPU2,3.16031,52.35115,108.53435,0.29663,0.26074,0.32202
MPU1,-9.84733,19.08397,128.36641,0.35522,-0.09985,0.37207
MPU2,-37.63359,89.28244,102.51908,0.37646,0.16797,0.39014
MPU1,-60.65649,27.93893,110.03053,0.27124,-0.02075,0.24512
MPU2,-76.42748,65.75572,72.96183,0.37354,0.04224,0.62573
MPU1,-64.47328,57.02290,95.43511,0.44897,-0.49316,0.64502
MPU2,-96.13741,100.25954,53.60305,0.50488,-0.03809,0.85669
MPU1,-77.29771,78.74809,60.90076,0.52612,-0.53516,0.69873
MPU2,-115.20611,62.58015,3.63359,0.52661,-0.15918,0.99463
MPU1,-70.39695,88.77863,21.29771,0.58618,-0.84082,0.96484
MPU2,-133.84734,113.51145,-29.57252,0.44507,-0.31201,1.10986
MPU1,-104.74809,133.02290,-26.56489,0.38794,-0.80762,0.89795
MPU2,-115.78626,76.38168,-87.90839,0.33325,-0.28833,1.13892
MPU1,-45.34351,169.14503,-32.76336,0.09790,-1.10181,1.09912
MPU2,-88.25954,104.10687,-98.53435,0.14697,-0.43823,1.20166
MPU1,-74.67175,88.10687,-96.51908,-0.09961,-0.88843,0.93799
MPU2,-84.96183,22.29008,-119.60305,0.13843,-0.42529,1.17773
MPU1,-33.64885,71.61832,-63.25191,-0.21045,-1.00317,1.14648
MPU2,-59.61832,11.70992,-134.82443,0.10425,-0.43091,1.27686
MPU1,-16.42748,73.67939,-103.34351,-0.05200,-0.97046,1.14307
MPU2,-20.64122,8.54962,-137.06870,-0.00049,-0.53955,1.45752
MPU1,34.80916,33.54198,-106.97710,-0.55957,-1.17920,1.47803
MPU2,33.08397,1.12977,-119.90839,-0.15601,-0.58765,1.60889
MPU1,49.51145,20.88550,-95.93893,-0.70020,-0.99121,1.33081
MPU2,78.94656,-28.36641,-90.39695,-0.31519,-0.52612,1.43628
MPU1,86.73283,-27.55725,-73.90839,-0.74487,-0.91528,1.28833
MPU2,108.99236,-44.93130,-57.77099,-0.28857,-0.41553,1.29810
MPU1,100.59542,-51.54198,-60.68702,-0.65527,-0.75952,1.13306
MPU2,127.64886,-53.34351,-29.77099,-0.21704,-0.26392,1.14771
MPU1,104.61069,-67.81680,-21.77099,-0.61353,-0.49390,0.89185
MPU2,129.57253,-60.77863,-2.53435,-0.27490,-0.13428,0.99414
MPU1,110.61069,-92.39695,-25.12977,-0.47412,-0.53003,0.94580
MPU2,129.23665,-35.16031,25.49618,-0.10254,-0.06958,0.93311
MPU1,105.19084,-33.46565,67.17558,-0.46118,-0.16968,0.55908
MPU2,103.16031,-17.41985,69.43511,-0.25464,0.08398,0.68750
MPU1,73.80153,-81.11450,50.83969,-0.44336,-0.13086,0.63892
MPU2,77.98473,29.34351,112.39695,0.11743,0.13647,0.74854
MPU1,42.07634,20.85496,210.67175,-0.21265,-0.05273,0.33594
MPU2,54.03053,63.45038,129.17557,-0.13086,0.05688,0.47241
MPU1,66.85497,-76.18320,90.83969,-0.06763,-0.52197,0.69238
MPU2,57.51145,-4.77863,108.47328,0.11743,-0.02417,0.41797
MPU1,29.78626,-32.90076,114.54962,0.13037,-0.05518,0.11670
MPU2,30.38168,44.80916,109.41985,0.32031,0.05396,0.34302
MPU1,16.97710,-20.47328,108.07633,0.34985,-0.18994,0.27417
MPU2,7.16031,48.00000,90.65649,0.37598,0.07373,0.37134
MPU1,5.60305,62.18320,147.83206,0.31812,-0.13525,0.26562
MPU2,-38.58015,133.32825,94.39695,0.29712,0.06226,0.51953
MPU1,-59.26717,77.25191,114.87023,0.26392,-0.27173,0.50293
MPU2,-59.43512,96.96183,44.33588,0.21094,-0.00513,0.63599
MPU1,-25.96947,68.01527,66.44275,0.15894,-0.54492,0.73193
MPU2,-73.25191,102.12214,6.73282,0.30322,-0.03198,0.86304
MPU1,-56.18320,116.04580,22.79389,0.37842,-0.58789,0.70850
MPU2,-93.80153,101.92367,-35.58779,0.23340,-0.09375,0.87866
MPU1,-65.66412,139.14503,6.51908,-0.02734,-0.54297,0.65625
MPU2,-108.45802,98.68702,-62.50382,0.08276,-0.28955,1.18018
MPU1,-46.65649,86.61069,-56.00000,-0.03271,-1.08472,1.20044
MPU2,-100.93130,73.96947,-94.48855,0.15430,-0.30371,1.11377
MPU1,-65.83206,139.46565,-46.97710,-0.03320,-0.82886,0.88940
MPU2,-100.18320,58.44275,-110.06107,0.02441,-0.48999,1.41284
MPU1,-62.91603,124.54962,-77.63359,-0.16699,-1.14600,1.09985
MPU2,-69.06870,80.19847,-131.86259,0.06519,-0.56323,1.41187
MPU1,-28.04580,117.81680,-95.92367,-0.50220,-1.25244,1.12622
MPU2,-13.84733,-24.35114,-139.31297,-0.42188,-0.67334,1.27319
MPU1,1.81679,7.05344,-131.66412,-0.75000,-1.11938,1.12988
MPU2,21.77099,-17.03817,-130.87022,-0.22803,-0.60669,1.40967
MPU1,32.65649,29.69466,-119.70992,-0.72607,-1.14722,1.11475
MPU2,58.53435,-17.26718,-108.27481,-0.35449,-0.64966,1.35693
MPU1,81.32825,5.92366,-97.83206,-0.94604,-1.10425,1.13110
MPU2,94.44275,-42.06107,-76.48855,-0.47046,-0.53955,1.33496
MPU1,80.56489,-44.38168,-80.94656,-0.98828,-0.82446,0.97827
MPU2,112.36641,-79.69466,-43.58779,-0.48096,-0.40601,1.20483
MPU1,101.78626,-64.77863,-59.38931,-0.75903,-0.83398,0.93896
MPU2,126.07633,-43.32824,-15.14504,-0.33521,-0.26807,1.02832
MPU1,110.88550,-66.42748,-30.50382,-0.73950,-0.52026,0.69653
MPU2,119.89313,-65.00764,14.83969,-0.35840,-0.17114,0.85767
MPU1,95.66412,-85.81680,-1.96947,-0.51367,-0.38062,0.54053
MPU2,99.61832,-14.36641,52.62595,-0.15454,-0.10742,0.68994
MPU1,95.40458,-64.44275,38.85496,-0.43359,-0.30029,0.52490
MPU2,90.15267,-42.42748,70.76336,-0.19189,0.02905,0.74536
MPU1,72.90076,-59.98473,73.05344,-0.30151,-0.25610,0.62134
MPU2,83.40458,25.67939,89.48092,0.07910,0.03296,0.71045
MPU1,88.12214,-53.19084,77.35878,-0.13110,-0.29980,0.63403
MPU2,81.20611,-40.62595,95.23664,-0.06982,0.11548,0.54785
MPU1,52.12214,-49.43512,100.64122,-0.13110,-0.10059,0.42065
MPU2,76.68702,45.12977,116.47328,0.21338,0.05273,0.65112
MPU1,72.99236,-47.84733,123.09924,0.06128,-0.41235,0.63013
MPU2,70.03053,41.63359,112.67175,0.16382,0.12744,0.40625
MPU1,48.41221,-18.16794,137.06870,0.11646,0.02808,0.18115
MPU2,29.43511,91.28244,109.96947,0.26685,0.21777,0.33276
MPU1,0.36641,22.68702,113.26717,0.39941,0.06079,0.16357
MPU2,-18.12214,85.84733,89.63359,0.29150,0.18701,0.28857
MPU1,-10.48855,33.45038,104.77863,0.22607,-0.08130,0.27148
MPU2,-62.47328,66.03053,68.09161,0.19824,0.08154,0.46997
MPU1,-78.07633,23.41985,38.88550,0.32544,-0.23877,0.38477
MPU2,-97.37405,49.70992,33.38931,0.29224,-0.03931,0.71143
MPU1,-55.60305,104.70229,69.51145,0.21997,-0.46606,0.61816
MPU2,-127.34351,95.37405,5.40458,0.24463,-0.10571,0.98730
MPU1,-89.93893,49.43512,-12.83969,0.22949,-0.79590,0.95386
MPU2,-120.30534,72.87023,-40.93130,0.31934,-0.27783,1.15039
MPU1,-78.70229,44.44275,-23.28244,0.11133,-1.01196,1.06372
MPU2,-108.96183,80.85497,-70.13741,0.27026,-0.37061,1.09033
MPU1,-44.25954,121.43511,-24.88550,0.17944,-0.88110,0.91626
MPU2,-92.03053,100.25954,-85.38931,0.17017,-0.51807,1.41968
MPU1,16.47328,66.22900,-72.45802,-0.26074,-1.32666,1.44922
MPU2,-49.78626,-34.53435,-116.41222,-0.13989,-0.50269,1.27783
MPU1,-29.29771,59.60305,-95.06870,0.05347,-0.64209,0.89551
MPU2,-49.78626,72.65649,-120.85497,0.18652,-0.45288,1.46387
MPU1,-31.49618,86.90076,-96.44275,-0.34570,-0.94312,1.25049
MPU2,-24.70229,-33.06870,-128.29007,-0.18213,-0.49072,1.28564
MPU1,-14.36641,9.35878,-116.76336,-0.35938,-0.89795,1.28491
MPU2,14.30534,-21.93893,-124.74809,-0.02734,-0.48999,1.44702
MPU1,45.57252,-5.38931,-126.22900,-0.31177,-1.10742,1.48413
MPU2,61.25191,-18.67175,-121.57252,-0.05981,-0.49902,1.45386
MPU1,75.25191,24.71756,-117.93893,-0.42651,-0.91919,1.25659
MPU2,93.60305,-27.29771,-103.54198,-0.28540,-0.43628,1.30273
MPU1,92.93130,-8.47328,-104.12214,-0.70581,-0.79541,1.20312
MPU2,111.61832,-39.95420,-63.69466,-0.31226,-0.32788,1.23486
MPU1,77.58778,-27.09924,-80.58015,-0.71826,-0.57617,1.01172
MPU2,118.99236,-51.52672,-28.36641,-0.23535,-0.20264,1.07983
MPU1,113.20611,-62.82443,-32.33588,-0.68091,-0.53833,1.01001
MPU2,128.65649,-53.35878,0.87023,-0.21851,-0.11353,0.97095
MPU1,105.34351,-46.85496,-6.15267,-0.36890,-0.30884,0.72095
MPU2,129.43512,-4.91603,30.30534,-0.05713,0.03027,0.81348
MPU1,119.25191,-58.21374,35.58779,-0.43286,-0.33496,0.80273
MPU2,125.46565,-16.51908,49.64885,-0.08325,0.12573,0.70337
MPU1,113.63359,-29.87786,68.30534,-0.19189,-0.03052,0.49731
MPU2,100.53435,18.35114,72.74809,0.04712,0.14795,0.56958
MPU1,88.35114,-25.77099,83.86259,-0.08911,-0.06689,0.47852
MPU2,77.28244,24.54962,94.32061,0.07837,0.21777,0.48462
MPU1,53.90840,-31.84733,105.31298,-0.08716,0.09985,0.39941
MPU2,44.01527,23.70992,104.35114,0.13257,0.19653,0.41919
MPU1,24.67175,-6.61069,118.13741,0.14209,0.02539,0.31128
MPU2,17.08397,48.41221,111.06870,0.25171,0.17969,0.37964
MPU1,-0.71756,-21.19084,111.03817,0.19531,0.02441,0.35864
MPU2,-18.07634,35.75573,107.29771,0.35522,0.16260,0.50610
MPU1,-54.33588,10.99237,104.99236,0.44165,-0.14404,0.41235
MPU2,-49.95420,85.05344,95.41985,0.40259,0.13989,0.46167
MPU1,-71.95420,44.12214,112.82442,0.24365,-0.11865,0.40283
MPU2,-86.04580,72.06107,77.72519,0.27368,0.05786,0.67944
MPU1,-120.48855,50.38168,74.65649,0.29761,-0.44385,0.58618
MPU2,-91.28244,109.58778,45.16031,0.40283,-0.04199,0.80444
MPU1,-82.00000,96.41222,68.70229,0.29419,-0.55908,0.75879
MPU2,-101.55725,100.45802,-1.26718,0.32422,-0.08130,0.89575
MPU1,-78.97710,82.50381,-2.10687,0.39844,-0.82739,0.88306
MPU2,-88.04580,80.01527,-52.22901,0.32861,-0.28589,1.09399
MPU1,-20.91603,171.98473,12.25954,0.09229,-0.76465,0.78027
MPU2,-97.19084,149.02290,-65.32825,0.26318,-0.33252,1.12817
MPU1,-38.88550,121.14503,-40.35115,0.08594,-0.85254,0.96729
MPU2,-96.27481,90.88550,-103.29771,0.06030,-0.37085,1.20801
MPU1,-14.29008,133.05344,-33.37405,-0.32471,-0.88501,0.96387
MPU2,-91.12977,81.95420,-110.54962,-0.06543,-0.48438,1.20654
MPU1,-42.90076,61.93893,-102.44275,-0.36572,-0.98169,1.02466
MPU2,-75.16031,4.85496,-120.64122,-0.13916,-0.59277,1.23755
MPU1,-26.67175,54.48855,-79.23664,-0.33325,-0.83325,1.08081
MPU2,-43.87786,-2.09160,-120.45802,-0.16089,-0.58130,1.37231
MPU1,-34.65649,14.19847,-121.19084,-0.40723,-1.06958,1.32935
MPU2,11.83206,-7.70992,-117.74046,-0.12915,-0.64819,1.40356
MPU1,47.72519,21.22137,-107.06870,-0.52588,-1.05688,1.40356
MPU2,64.74809,-11.77099,-107.16031,-0.20459,-0.63403,1.48999
MPU1,66.54962,8.06107,-94.06107,-0.59277,-0.97192,1.30200
MPU2,106.04580,-8.41221,-85.58778,-0.21143,-0.60083,1.31445
MPU1,120.32061,-6.87023,-70.88550,-0.69458,-0.93091,1.13062
MPU2,125.17558,-20.56489,-52.54962,-0.35596,-0.51147,1.21069
MPU1,102.80916,-49.09924,-35.08397,-0.89722,-0.64844,0.96899
MPU2,140.33588,-53.57252,-20.22901,-0.36157,-0.33325,1.08765
MPU1,136.39694,-50.71756,-18.03053,-0.53027,-0.61938,0.90698
MPU2,149.26718,-18.33588,5.38931,-0.27808,-0.22412,1.03369
MPU1,94.42748,-44.44275,-9.14504,-0.50513,-0.31299,0.63965
MPU2,131.67938,-10.00000,34.32061,-0.24878,-0.05005,0.92554
MPU1,24.96183,-15.02290,33.83206,-0.48242,-0.11255,0.61572
MPU2,106.48855,19.57252,73.66412,-0.01978,-0.05518,0.84155
MPU1,88.16794,-82.18320,49.58779,-0.40039,-0.66992,1.11035
MPU2,123.84733,-66.19847,64.38168,-0.18872,0.06396,0.72803
MPU1,80.73283,-66.22900,40.70229,-0.16577,-0.14185,0.43408
MPU2,103.83206,17.26718,77.74046,0.05029,0.10400,0.79077
MPU1,41.55725,-26.18321,94.48855,-0.17798,-0.11646,0.48071
MPU2,71.86259,43.51145,112.48855,0.04077,0.17188,0.35547
MPU1,51.60305,-37.29771,123.90839,-0.14136,-0.01367,0.36011
MPU2,36.44275,49.78626,127.64886,0.12134,0.19019,0.41724
MPU1,5.60305,-56.70229,108.73283,0.11133,-0.05615,0.26074
MPU2,-5.34351,-12.35114,122.62595,0.10278,0.22925,0.20093
MPU1,-18.87023,-120.29008,68.41222,0.09155,-0.05054,0.24438
MPU2,-27.19084,-62.44275,118.47328,0.32349,0.05811,0.28467
MPU1,-43.93893,-50.19847,105.67939,0.49146,-0.13501,0.16992
MPU2,-31.98473,60.30534,117.60305,0.56787,0.05713,0.20874
MPU1,-73.96947,-21.54198,93.55725,0.44751,-0.15820,0.19604
MPU2,-84.36641,11.20611,64.59542,0.35156,0.06006,0.35303
MPU1,-86.67175,5.49618,66.99236,0.51074,-0.28589,0.33984
MPU2,-116.47328,79.11450,36.94656,0.68530,-0.01538,0.80444
MPU1,-72.99236,104.96183,70.53435,0.67944,-0.52539,0.48535
MPU2,-117.72519,115.84733,-0.88550,0.59180,-0.18311,1.07520
MPU1,-56.82443,112.48855,24.07634,0.47607,-1.05835,0.99048
MPU2,-96.00000,101.92367,-60.10687,0.43091,-0.38330,1.07324
MPU1,-18.22901,118.32061,-8.68702,0.21143,-1.02319,1.04761
MPU2,-83.17558,130.24428,-89.58778,0.41504,-0.36572,1.33813
MPU1,-10.77863,210.09160,-17.38931,0.38525,-0.92725,0.86426
MPU2,-71.57252,130.80916,-122.32061,0.19556,-0.38843,1.10083
MPU1,-39.90840,102.97710,-103.78626,-0.28174,-0.91724,0.88550
MPU2,-85.12977,36.77863,-122.65649,0.13062,-0.44165,1.21069
MPU1,-71.86259,86.73283,-96.80916,-0.13672,-0.85303,0.93018
MPU2,-83.02290,-3.37405,-124.88550,0.09399,-0.43481,1.30396
MPU1,-53.17557,51.66412,-114.87023,-0.18433,-1.16968,1.28394
MPU2,-38.32061,12.39695,-129.78625,0.09277,-0.50293,1.41870
MPU1,-6.94656,79.70992,-102.58015,-0.27124,-1.13550,1.20605
MPU2,12.10687,3.63359,-122.44275,-0.14233,-0.62842,1.45215
MPU1,54.71756,45.02290,-97.45038,-0.60693,-1.35425,1.40894
MPU2,75.46565,23.41985,-97.96947,-0.16113,-0.61792,1.43140
MPU1,100.09161,50.32061,-63.60305,-0.66577,-1.04395,1.08765
MPU2,110.65649,2.18321,-61.23664,-0.36572,-0.53662,1.31689
MPU1,119.17558,-5.40458,-29.08397,-0.89038,-0.93408,1.08301
MPU2,140.03053,-10.22901,-22.83969,-0.39502,-0.36792,1.16260
MPU1,138.56488,-14.29008,2.83969,-0.72656,-0.66968,0.85913
MPU2,153.75572,3.22137,18.79389,-0.47729,-0.30737,1.09961
MPU1,117.40458,-54.29008,28.62595,-1.09546,-0.66016,0.85669
MPU2,165.96947,-57.51145,68.30534,-0.43848,-0.17725,0.92749
MPU1,149.19084,-101.78626,60.70229,-0.54492,-0.54150,0.72681
MPU2,162.56488,-25.37405,86.88550,-0.12817,-0.00049,0.78467
MPU1,132.21375,-93.46565,73.64886,-0.28442,-0.30542,0.46167
MPU2,134.99237,-49.77099,94.94656,-0.04102,0.10425,0.62573
MPU1,77.05344,-102.90076,75.46565,-0.06714,-0.06299,0.33765
MPU2,100.82442,-8.13740,109.08397,0.16748,0.18945,0.50415
MPU1,78.22900,-72.19847,104.07633,0.00879,-0.02856,0.37207
MPU2,68.24428,-27.38931,115.17558,0.08057,0.22290,0.33057
MPU1,17.34351,-85.75572,89.00764,0.09229,0.04590,0.25903
MPU2,38.19847,7.32824,114.00000,0.32544,0.20874,0.44141
MPU1,3.93893,-38.94656,100.87023,0.32568,-0.05347,0.33765
MPU2,3.58779,30.42748,118.16794,0.37085,0.20337,0.35474
MPU1,-34.88550,-44.47328,111.29771,0.21948,0.02832,0.23486
MPU2,-30.04580,8.94656,121.23664,0.41260,0.19604,0.31519
MPU1,-83.89313,-49.08397,91.02290,0.56812,-0.13110,0.26685
MPU2,-76.58015,22.58015,103.67939,0.60425,0.14893,0.49341
MPU1,-110.94656,-5.43511,115.08397,0.56299,-0.23486,0.30664
MPU2,-103.84733,69.54198,82.83969,0.69092,0.08936,0.65820
MPU1,-116.71756,46.64122,65.93893,1.01270,-0.68701,0.56299
MPU2,-95.49619,90.96183,36.96183,0.81982,-0.09253,0.56714
MPU1,-78.00000,81.41985,72.50381,0.65649,-0.61182,0.52661
MPU2,-108.06107,102.10687,-12.53435,0.49683,-0.13184,0.72192
MPU1,-76.67175,63.40458,-1.96947,0.52002,-0.88159,0.61011
MPU2,-100.12214,45.84733,-70.68702,0.52417,-0.29004,0.87891
MPU1,-7.28244,178.38168,14.16794,0.59619,-0.93604,0.68091
MPU2,-83.77100,154.00000,-95.09924,0.35742,-0.37793,1.03735
MPU1,-39.26717,152.47328,-53.05344,0.09106,-0.91357,0.71338
MPU2,-83.81680,121.43511,-124.00000,0.31494,-0.32861,0.98315
MPU1,-18.54962,185.16031,-42.73283,-0.01465,-0.84033,0.63013
MPU2,-90.85497,98.93130,-125.77100,0.03735,-0.39355,1.09106
MPU1,-51.05344,104.94656,-79.16031,-0.28833,-0.73975,0.80029
MPU2,-93.29771,41.09924,-128.21375,0.08643,-0.31616,1.12280
MPU1,-67.70992,123.25191,-77.57252,-0.27832,-1.04443,0.95459
MPU2,-74.44275,25.45038,-123.70992,0.10522,-0.47412,1.29541
MPU1,-29.19084,93.81680,-104.64122,-0.01318,-1.23901,1.15698
MPU2,-21.84733,57.05344,-126.73283,0.17847,-0.69824,1.54858
MPU1,33.75573,127.98473,-67.17558,-0.53979,-1.50220,1.27319
MPU2,59.11450,77.64886,-96.48855,-0.23315,-0.93555,1.50220
MPU1,98.50381,74.12214,-49.17557,-0.99023,-1.49731,1.22656
MPU2,130.06107,23.80153,-57.90840,-0.37256,-0.89331,1.46655
MPU1,162.67175,-2.44275,-25.40458,-0.89551,-1.47681,1.18652
MPU2,183.89313,-41.35878,-26.36641,-0.44189,-0.64185,1.18970
MPU1,187.84734,-91.63359,-31.66412,-0.95093,-0.98169,0.76636
MPU2,184.30534,-82.91603,8.79389,-0.36597,-0.33765,1.02808
MPU1,147.74046,-116.70229,18.16794,-0.71753,-0.43530,0.48877
MPU2,158.83969,-55.03817,52.91603,-0.19043,-0.09961,0.90210
MPU1,118.80916,-107.22137,59.23664,-0.50610,-0.31567,0.53662
MPU2,133.80153,-54.71756,72.36641,-0.21851,0.03735,0.67285
MPU1,100.96183,-124.83969,40.68702,-0.32959,-0.23657,0.50391
MPU2,116.80916,-61.75573,80.93130,-0.04590,0.07227,0.61206
MPU1,93.34351,-99.46565,82.19847,-0.20996,-0.19995,0.42676
MPU2,113.83206,-3.49618,97.86259,0.04736,0.09814,0.56372
MPU1,84.79389,-89.05344,79.72519,-0.06958,-0.14722,0.49902
MPU2,97.51145,-23.03817,101.55725,0.10596,0.15088,0.45752
MPU1,56.74809,-82.01527,98.27481,0.05688,-0.02075,0.41211
MPU2,56.79389,18.82443,163.11450,0.40454,0.22168,0.55591
MPU1,27.35878,-42.67176,114.85497,0.33301,-0.06104,0.30469
MPU2,45.92366,40.25954,115.28244,0.24805,0.25342,0.19775
MPU1,-14.53435,-63.34351,106.09161,0.18774,0.08447,0.12427
MPU2,-15.14504,28.83969,114.70229,0.38379,0.22681,0.28711
MPU1,-31.28244,-0.50382,93.12977,0.57373,-0.16333,0.24219
MPU2,-16.38168,49.31298,86.99236,0.49707,0.12329,0.18921
MPU1,-36.00000,8.80916,112.51908,0.35449,-0.02197,0.20874
MPU2,-79.48092,91.19084,79.92367,0.62183,0.09668,0.67041
MPU1,-94.71756,73.12977,68.04580,0.95898,-0.44653,0.39062
MPU2,-104.12214,81.40458,33.46565,0.62476,-0.01050,0.59106
MPU1,-67.51145,103.74046,90.27481,0.42261,-0.48218,0.52075
MPU2,-116.30534,138.79390,2.39695,0.56348,-0.02539,1.13916
MPU1,-71.22137,127.64886,35.60305,0.46948,-0.87451,0.78198
MPU2,-79.20611,113.98473,-32.21374,0.49634,-0.28955,0.96240
MPU1,-41.72519,140.80916,-1.75573,0.44653,-0.92920,0.81982
MPU2,-82.09161,135.02290,-78.25954,0.42725,-0.28638,1.00024
MPU1,-38.09160,162.82443,-21.81679,0.24976,-0.98340,0.82642
MPU2,-86.53435,119.41985,-108.41222,0.28223,-0.32666,1.22437
MPU1,-35.58779,183.31297,-12.32061,-0.00244,-0.91919,0.78027
MPU2,-76.07633,93.92367,-130.42747,0.07642,-0.37183,1.14624
MPU1,-49.72519,127.72519,-94.88550,-0.05615,-1.10767,0.91138
MPU2,-60.44275,40.25954,-133.17557,0.09424,-0.49194,1.38086
MPU1,-35.78626,74.77863,-94.09161,-0.32812,-1.13965,1.10767
MPU2,-35.81680,-16.71756,-135.46565,-0.08105,-0.46924,1.42480
MPU1,-20.56489,62.83969,-119.64886,-0.28369,-1.22217,1.10474
MPU2,2.79389,0.03053,-124.45802,-0.02295,-0.57959,1.48633
MPU1,52.97710,57.49618,-100.80916,-0.50732,-1.42017,1.27295
MPU2,57.49618,-1.54198,-107.77100,-0.20508,-0.59180,1.48560
MPU1,77.20611,34.39695,-86.30534,-0.71069,-1.16797,1.08765
MPU2,93.11450,-26.09160,-73.66412,-0.29468,-0.52710,1.36353
MPU1,103.95420,-25.93893,-69.49619,-0.73560,-1.00879,1.04175
MPU2,113.74046,-60.83969,-45.55725,-0.32007,-0.38599,1.16968
MPU1,108.10687,-53.48092,-52.39695,-0.67969,-0.80786,0.80298
MPU2,121.95420,-71.57252,-10.73282,-0.39429,-0.35791,1.11841
MPU1,104.94656,-96.64122,-31.22137,-0.89404,-0.82568,0.87158
MPU2,146.82443,-75.14503,25.90840,-0.31909,-0.24707,0.98730
MPU1,144.21375,-90.36641,15.55725,-0.49829,-0.64209,0.71533
MPU2,154.12213,-25.08397,51.95420,-0.09326,-0.03491,0.84131
MPU1,125.38931,-77.37405,37.11450,-0.26245,-0.39600,0.52539
MPU2,138.91603,-11.38931,54.25954,0.01343,0.06885,0.66528
MPU1,122.33588,-72.06107,62.13741,-0.06323,-0.21948,0.48193
MPU2,127.57252,20.61069,67.87786,0.27515,0.17798,0.62109
MPU1,111.32825,-18.62595,95.45038,0.24243,-0.15503,0.42285
MPU2,124.15267,59.38931,62.39695,0.04712,0.36572,0.23584
MPU1,103.83206,-18.30534,66.06107,0.05835,0.16968,0.30615
MPU2,62.41221,36.48855,81.41985,0.17114,0.39258,0.39453
MPU1,24.10687,-23.49618,97.02290,0.07031,0.28442,0.30225
MPU2,24.15267,48.91603,95.49619,0.19678,0.39209,0.28906
MPU1,0.50382,-30.68702,102.30534,0.17920,0.11206,0.39502
MPU2,-9.22137,38.85496,100.65649,0.30518,0.32568,0.39014
MPU1,-34.15267,-13.02290,104.10687,0.35132,0.00757,0.29028
MPU2,-45.96947,44.24427,81.11450,0.32153,0.22437,0.42529
MPU1,-49.83206,22.09160,78.67175,0.47900,-0.18286,0.42114
MPU2,-65.67939,55.45038,65.67939,0.45166,0.20093,0.49683
MPU1,-75.12977,63.43512,87.16031,0.56348,-0.24878,0.34863
MPU2,-106.42748,96.41222,33.83206,0.40381,0.15820,0.59521
MPU1,-96.71756,88.36641,80.80916,0.36060,-0.39551,0.49658
MPU2,-120.38168,124.35114,2.18321,0.51001,0.01416,0.88599
MPU1,-78.38168,135.12978,45.25191,0.49048,-0.72534,0.75146
MPU2,-111.74046,93.92367,-40.00000,0.27100,-0.13989,0.98779
MPU1,-86.32061,117.28244,4.15267,0.14600,-0.92871,0.85913
MPU2,-113.29771,86.48855,-69.86259,0.28687,-0.25488,1.13794
MPU1,-54.00000,132.90076,-21.77099,0.22900,-1.06860,0.99219
MPU2,-89.03817,104.62595,-100.59542,0.26172,-0.28247,1.26123
MPU1,-61.46565,140.76335,-47.92366,-0.11548,-0.89819,0.80493
MPU2,-100.68702,39.49618,-121.00764,0.12842,-0.32471,1.22485
MPU1,-57.09924,101.12977,-90.22900,0.00391,-1.19312,1.01709
MPU2,-77.11450,45.83206,-134.00000,0.15479,-0.42334,1.48633
MPU1,-38.54962,114.50381,-83.20611,-0.36377,-1.26392,1.10986
MPU2,-36.07634,-0.21374,-134.16794,-0.13281,-0.53101,1.43774
MPU1,3.60305,63.17557,-114.38168,-0.36499,-1.33325,1.16675
MPU2,11.12977,8.80916,-129.74046,-0.07788,-0.57861,1.57422
MPU1,54.30534,61.89313,-84.77863,-0.75049,-1.41528,1.24487
MPU2,62.87023,-3.38931,-97.37405,-0.32935,-0.61816,1.54688
MPU1,73.80153,3.80153,-86.32061,-0.91797,-1.15869,1.13159
MPU2,84.36641,-61.22137,-54.87023,-0.40991,-0.41260,1.53735
MPU1,85.83206,-64.22900,-72.83969,-0.85327,-1.16357,1.27637
MPU2,118.94656,-87.41985,-30.45802,-0.35938,-0.42896,1.39258
MPU1,116.91603,-89.08397,-63.11450,-0.73755,-0.99829,0.94385
MPU2,138.83969,-78.03053,-13.31298,-0.32422,-0.32227,1.19678
MPU1,122.70229,-82.96183,-40.45802,-0.69946,-0.69824,0.71118
MPU2,134.33588,-72.64122,17.78626,-0.27075,-0.21729,0.85010
MPU1,113.80153,-85.80153,-6.45802,-0.52515,-0.50439,0.50269
MPU2,125.26717,-20.09160,39.45038,-0.09985,-0.08472,0.77271
MPU1,124.22900,-54.36641,38.42748,-0.37305,-0.30640,0.41748
MPU2,116.73283,54.19847,78.71756,0.17456,0.05078,0.58911
MPU1,89.89313,15.61832,141.05344,-0.11230,-0.03809,0.30078
MPU2,98.76336,68.12214,80.41222,-0.13452,0.09082,0.32959
MPU1,125.26717,-23.17557,76.25954,0.07202,-0.28149,0.52856
MPU2,105.38931,60.12214,73.87786,0.15186,0.19385,0.29321
MPU1,77.58778,11.32824,120.51908,0.01904,0.18140,0.12207
MPU2,54.59542,71.95420,98.00000,0.08960,0.25586,0.32300
MPU1,34.35115,-36.91603,90.22900,0.11792,-0.11548,0.44019
MPU2,63.70992,-3.08397,86.35114,0.18530,0.17090,0.32666
MPU1,98.76336,-8.45802,105.74046,0.33789,-0.24072,0.57227
MPU2,67.74046,82.70229,87.09924,0.28125,0.31396,0.49976
MPU1,-8.65649,1.51145,81.96947,0.30981,0.23047,0.12427
MPU2,-20.58015,30.85496,59.25191,0.18970,0.31689,0.42798
MPU1,-17.38931,0.51908,63.55725,0.25781,-0.15845,0.67749
MPU2,-23.46565,66.36641,49.93893,0.38623,0.26953,0.54199
MPU1,-44.61069,35.77099,53.12977,0.34985,0.00903,0.42871
MPU2,-82.42748,66.33588,22.16794,0.38721,0.20898,0.65308
MPU1,-87.86259,80.09161,41.75573,0.52637,-0.30078,0.63062
MPU2,-108.96183,115.90839,-16.74809,0.36353,0.24927,0.73486
MPU1,-69.96947,141.51144,59.14504,0.11768,-0.31909,0.65796
MPU2,-136.77863,69.19084,-33.90840,0.03125,-0.00659,1.13062
MPU1,-92.51908,78.73283,-29.22137,0.09180,-0.90991,1.17236
MPU2,-115.02290,96.64122,-36.91603,0.33276,-0.10303,1.23779
MPU1,-60.47328,113.25191,2.18321,0.00244,-0.56567,0.98486
MPU2,-133.70993,58.93130,-66.59542,0.01904,0.04248,1.15747
MPU1,-49.22137,48.04580,-67.38931,-0.26221,-0.89453,1.18579
MPU2,-107.78626,2.68702,-90.48855,-0.00122,-0.29028,1.23755
MPU1,-57.20611,103.96947,-47.26717,-0.02661,-0.65283,0.84424
MPU2,-104.19847,66.64122,-92.36641,0.02563,-0.34644,1.32617
MPU1,-119.45038,84.59542,-91.72519,-0.43921,-0.91309,1.04468
MPU2,-66.62595,-15.51145,-116.22900,-0.11938,-0.40527,1.15942
MPU1,-30.76336,81.11450,-98.18320,-0.19189,-1.02515,1.10449
MPU2,-26.58015,19.20611,-115.66412,-0.05762,-0.45923,1.39502
MPU1,12.91603,52.88550,-95.26717,-0.51367,-1.11548,1.33325
MPU2,27.75573,-9.78626,-112.21374,-0.22974,-0.48169,1.40991
MPU1,56.67176,33.75573,-94.25954,-0.56494,-1.03052,1.21240
MPU2,61.98473,1.72519,-89.78626,-0.22119,-0.48926,1.47437
MPU1,71.40458,15.46565,-59.75573,-0.83008,-1.03174,1.17773
MPU2,91.37405,-28.24427,-61.52672,-0.43823,-0.45068,1.25806
MPU1,80.03053,-30.38168,-54.03053,-0.77393,-0.72461,0.97998
MPU2,101.09924,-45.74046,-32.15267,-0.39478,-0.32617,1.29565
MPU1,64.35114,-58.47328,-18.77863,-0.91797,-0.68213,1.01318
MPU2,122.24428,-53.46565,1.45038,-0.50928,-0.19263,1.13013
MPU1,109.17558,-76.22900,-1.90840,-0.84912,-0.61011,0.96338
MPU2,132.70229,-50.82443,30.67175,-0.39600,-0.18433,1.17358
MPU1,74.90076,-81.45038,18.13741,-0.67578,-0.48828,0.70190
MPU2,139.11450,-41.67939,61.60305,-0.31885,-0.13916,0.77515
MPU1,135.08397,-95.05344,49.38931,-0.61011,-0.50635,0.67603
MPU2,128.76335,-46.64122,90.50381,-0.19067,0.03027,0.78516
MPU1,79.52672,-120.10687,47.58779,-0.30566,-0.24561,0.44360
MPU2,108.91603,-32.54962,93.95420,-0.03979,0.03125,0.42896
MPU1,83.72519,-79.54198,118.35114,-0.19775,0.01953,0.21265
MPU2,64.79389,50.53435,122.30534,0.13354,0.21143,0.49316
MPU1,11.80153,-86.38168,68.48855,0.01514,-0.07324,0.36401
MPU2,39.20611,-27.09924,109.84733,0.23145,0.17603,0.25098
MPU1,28.19847,-44.53435,115.55725,0.23608,-0.05347,0.24072
MPU2,15.41985,48.09160,112.99236,0.34863,0.15308,0.38159
MPU1,1.93893,-36.07634,101.80153,0.33838,-0.14380,0.32910
MPU2,-5.17557,19.74046,100.79389,0.32568,0.07983,0.37378
MPU1,-13.92366,-2.74809,110.19847,0.31909,-0.17700,0.33887
MPU2,-23.19084,58.91603,93.92367,0.42944,0.10010,0.49951
MPU1,-48.48855,4.56489,82.13741,0.45776,-0.27832,0.46094
MPU2,-45.75573,55.96947,71.16031,0.44751,0.10840,0.59155
MPU1,-76.00000,34.25954,64.83969,0.51074,-0.32495,0.52344
MPU2,-69.64886,92.68702,36.19847,0.51270,0.07544,0.83691
MPU1,-73.12977,76.51908,65.90839,0.31738,-0.52832,0.60449
MPU2,-84.15267,100.93130,7.26718,0.37671,-0.05322,0.86108
MPU1,-65.93893,82.50381,34.06107,0.28833,-0.71753,0.69556
MPU2,-83.09924,78.83969,-28.80916,0.32544,-0.18164,1.02832
MPU1,-44.47328,102.97710,6.64122,0.22900,-0.97681,0.83936
MPU2,-69.54198,79.87786,-60.32061,0.21826,-0.26562,1.05591
MPU1,-29.69466,132.93130,-21.93893,0.05713,-0.86450,0.74805
MPU2,-75.23664,119.87786,-80.30534,0.19678,-0.29517,1.08887
MPU1,1.14504,146.39694,-10.79389,-0.09253,-0.89233,0.79175
MPU2,-69.34351,89.51145,-96.79389,-0.00854,-0.29370,1.17432
MPU1,-30.62595,126.94656,-57.75573,-0.18555,-0.85474,0.80859
MPU2,-77.14503,53.95420,-112.80916,-0.01660,-0.33496,1.22021
MPU1,-41.32824,84.25954,-91.92367,-0.20776,-1.01172,1.00171
MPU2,-61.78626,18.21374,-125.08397,0.00684,-0.38867,1.29248
MPU1,-12.62595,91.63359,-91.12977,-0.27759,-1.04883,1.05542
MPU2,-31.35878,-10.32061,-133.28244,-0.15088,-0.44678,1.35962
MPU1,-11.90840,51.64885,-122.38168,-0.37866,-1.07812,1.10742
MPU2,8.73282,-3.41985,-122.85497,-0.08838,-0.56030,1.52026
MPU1,50.83969,43.17557,-93.84733,-0.65869,-1.32617,1.33276
MPU2,60.73283,-11.72519,-106.15267,-0.33618,-0.58374,1.53882
MPU1,80.21374,17.78626,-89.25191,-0.84839,-1.15503,1.16138
MPU2,98.48855,-45.22137,-73.77100,-0.33203,-0.48730,1.40796
MPU1,109.25191,-44.38168,-68.09161,-0.76782,-1.06519,1.17480
MPU2,138.04581,-54.76336,-60.06107,-0.25977,-0.33887,1.34326
MPU1,144.12213,-23.28244,-47.77099,-0.55225,-0.88916,0.91724
MPU2,143.12978,-26.10687,-20.58015,-0.21021,-0.28320,1.16284
MPU1,122.07633,-53.89313,-36.58015,-0.64502,-0.60986,0.78687
MPU2,129.61832,-64.42748,-4.06107,-0.38965,-0.11206,0.86914
MPU1,88.97710,-69.70992,-22.71756,-0.57056,-0.26196,0.47119
MPU2,110.07633,-49.86259,30.97710,-0.20361,-0.04932,0.71387
MPU1,89.37405,-85.64886,14.64122,-0.49292,-0.37231,0.63745
MPU2,107.40458,-52.13741,49.22137,-0.17212,-0.00464,0.65869
MPU1,79.67939,-61.05344,45.19084,-0.22070,-0.20410,0.42603
MPU2,102.07633,11.19084,64.25954,-0.02661,0.11230,0.54541
MPU1,71.87786,-80.12214,24.91603,-0.32153,-0.16504,0.50879
MPU2,79.84733,-22.70229,92.85497,-0.02710,0.16553,0.42969
MPU1,49.89313,-72.39695,100.25954,-0.26440,0.09082,0.30347
MPU2,52.13741,2.19847,122.19847,0.07520,0.25317,0.26587
MPU1,13.57252,-80.30534,95.31298,0.18164,0.03320,0.25391
MPU2,30.21374,17.61832,121.60305,0.27124,0.24658,0.36353
MPU1,-0.09160,-49.57252,136.44275,0.16064,-0.01294,0.32227
MPU2,3.23664,41.80153,129.09924,0.37378,0.21948,0.29248
MPU1,-18.00000,-40.48855,119.43511,0.39429,-0.07495,0.29907
MPU2,-33.49618,37.57252,110.83969,0.44800,0.14722,0.45483
MPU1,-54.56488,-8.22901,100.38168,0.56812,-0.29004,0.34717
MPU2,-60.88550,75.48092,92.91603,0.58423,0.07324,0.45752
MPU1,-70.45802,30.25954,102.56489,0.61768,-0.36938,0.38232
MPU2,-86.10687,94.97710,53.03817,0.53247,-0.00024,0.66064
MPU1,-66.76336,66.58015,91.11450,0.48438,-0.69629,0.65625
MPU2,-73.61832,120.04580,14.18321,0.50610,-0.15625,0.80298
MPU1,-39.58779,113.03817,47.09924,0.53589,-0.76074,0.64453
MPU2,-78.59542,110.00000,-47.52672,0.33521,-0.24780,1.06543
MPU1,-19.51145,161.26718,31.40458,0.13062,-0.94312,0.82031
MPU2,-56.24427,171.22137,-68.87023,0.26562,-0.30957,1.26245
MPU1,19.48092,170.09160,-18.33588,0.06592,-0.96924,0.97485
MPU2,-47.45038,127.52672,-100.73283,0.06934,-0.28760,1.25781
MPU1,6.04580,189.69466,-1.95420,-0.23706,-0.78711,0.80151
MPU2,-59.16031,112.47328,-87.06870,-0.10938,-0.27002,1.18433
MPU1,-45.05344,68.32061,-77.81680,-0.46924,-0.75684,1.02222
MPU2,-65.12977,-24.35114,-109.29771,-0.16992,-0.25415,1.23340
MPU1,-47.38931,57.31298,-92.21374,-0.16846,-0.94751,1.05054
MPU2,-46.53435,16.12214,-109.81680,0.04834,-0.37134,1.37280
MPU1,-36.01527,51.48092,-93.89313,-0.40259,-1.04297,1.10815
MPU2,-14.71756,-18.19847,-116.25954,-0.18628,-0.43262,1.31689
MPU1,18.21374,56.87023,-90.21374,-0.43384,-1.12866,1.11865
MPU2,18.85496,4.03053,-105.25191,-0.16260,-0.46216,1.36597
MPU1,26.00000,34.44275,-90.80916,-0.63843,-1.07544,1.03687
MPU2,51.57252,-12.59542,-86.77863,-0.30518,-0.52783,1.40039
MPU1,80.42748,11.87786,-66.42748,-0.79834,-1.20874,1.18481
MPU2,88.96183,-32.19847,-54.07634,-0.37109,-0.43921,1.32007
MPU1,76.10687,-25.09924,-45.11450,-0.76489,-0.81909,0.89697
MPU2,97.11450,-50.64122,-23.55725,-0.37036,-0.32910,1.27246
MPU1,99.45038,-55.51145,-31.80153,-0.73267,-0.92334,1.05957
MPU2,111.84733,-56.76336,-0.18321,-0.34570,-0.23242,1.18335
MPU1,93.83206,-68.06107,-13.64886,-0.66772,-0.60620,0.76440
MPU2,105.84733,-90.22900,26.24427,-0.34033,-0.15942,1.05664
MPU1,87.67939,-111.12977,-9.60305,-0.55151,-0.58447,0.75269
MPU2,106.83969,-58.82443,43.19084,-0.10620,-0.07129,0.85571
MPU1,87.08397,-96.32061,8.48855,-0.31787,-0.38794,0.53296
MPU2,105.77100,-104.96183,45.17557,-0.23486,-0.05078,0.63135
MPU1,63.11450,-121.26717,-15.38931,-0.26147,-0.25073,0.43945
MPU2,94.99236,-49.22137,60.21374,0.01489,0.14868,0.62891
MPU1,84.64122,-108.21374,18.97710,-0.22119,-0.14331,0.50000
MPU2,82.10687,-62.15267,77.70992,0.12524,0.25879,0.46655
MPU1,43.98473,-56.59542,76.62595,0.05762,0.12451,0.20752
MPU2,56.03053,22.10687,89.48092,0.21240,0.20459,0.39209
MPU1,31.75573,-41.35878,73.46565,0.23926,-0.16260,0.44531
MPU2,51.45038,34.32061,84.48855,0.33008,0.13696,0.41626
MPU1,33.81680,-12.56489,109.55725,0.15894,-0.10278,0.35840
MPU2,29.48092,57.34351,96.44275,0.34058,0.13672,0.38306
MPU1,3.83206,-21.40458,99.55725,0.30835,-0.19995,0.30298
MPU2,3.16031,62.16794,92.77863,0.42041,0.06519,0.46460
MPU1,9.14504,-12.54962,116.94656,0.24707,-0.26782,0.50684
MPU2,-22.36641,56.99237,85.55725,0.42310,0.07764,0.45093
MPU1,-30.47328,24.79389,90.50381,0.59741,-0.24023,0.24438
MPU2,-65.23664,88.30534,55.74046,0.52197,0.07178,0.50537
MPU1,-13.32824,76.12214,116.07633,0.40601,-0.29248,0.46167
MPU2,-86.04580,125.83206,40.59542,0.51196,0.03442,0.62842
MPU1,-54.76336,120.24428,77.95420,0.62476,-0.39087,0.38989
MPU2,-117.72519,140.71756,-11.93893,0.42676,-0.07397,0.81055
MPU1,-58.25954,107.48092,20.62595,0.28369,-0.91602,0.95410
MPU2,-113.12977,112.88550,-59.77099,0.30322,-0.25806,1.01929
MPU1,-28.07634,127.64886,2.58015,0.35767,-0.89136,0.79443
MPU2,-118.42748,120.80916,-77.14503,0.26367,-0.47729,1.43311
MPU1,-63.08397,106.97710,-36.59542,-0.08398,-1.10010,1.08887
MPU2,-97.69466,51.45038,-97.25191,0.15503,-0.53540,1.42017
MPU1,-68.19847,104.45802,-51.69466,-0.04199,-1.07153,1.17700
MPU2,-70.53435,55.90840,-104.48855,0.16504,-0.56812,1.56372
MPU1,-58.54962,64.00000,-48.83969,-0.39282,-1.26001,1.27417
MPU2,-25.89313,-14.42748,-125.60305,-0.23657,-0.61328,1.26929
MPU1,-1.38931,71.43511,-108.19847,-0.19824,-1.31006,1.08057
MPU2,9.34351,25.75573,-122.99236,-0.04810,-0.72119,1.46191
MPU1,8.04580,49.03817,-98.90076,-0.65674,-1.24121,1.13599
MPU2,51.41985,-5.08397,-106.88550,-0.20776,-0.64502,1.38013
MPU1,86.22900,38.42748,-81.45038,-0.53125,-1.18457,1.18701
MPU2,96.38168,-12.15267,-90.54962,-0.25903,-0.53149,1.39941
MPU1,95.34351,-10.97710,-84.58015,-0.75146,-1.02026,1.13232
MPU2,126.45802,-23.93893,-63.89313,-0.28394,-0.39795,1.32446
MPU1,126.50381,-19.54198,-49.80153,-0.73999,-0.81763,0.99805
MPU2,137.57253,-29.64886,-33.64885,-0.36646,-0.25342,1.19800
MPU1,116.59542,-62.13741,-54.96183,-0.68750,-0.58032,0.85327
MPU2,134.79390,-56.88550,-4.96183,-0.27563,-0.08887,0.99951
MPU1,125.60305,-40.07634,16.93130,-0.60815,-0.41650,0.72437
MPU2,131.34351,-1.87786,32.79389,-0.25122,-0.04810,0.87720
MPU1,110.24428,-69.58778,12.59542,-0.50928,-0.30640,0.66162
MPU2,115.16031,-8.71756,48.16794,-0.29321,0.06177,0.64526
MPU1,113.55725,41.31298,168.53435,-0.58765,-0.04492,0.29199
MPU2,72.65649,201.90840,126.93130,0.09424,-0.01807,0.84546
MPU1,63.54198,-60.18320,128.83969,-0.54395,-0.37012,0.63989
MPU2,78.90076,-78.27481,121.81680,-0.48560,0.02026,0.07617
MPU1,69.89313,-99.35878,88.87023,-0.10938,-0.05518,0.09888
MPU2,49.09924,15.95420,122.21374,0.13159,0.12280,0.27783
MPU1,12.85496,-25.41985,126.10687,0.23901,0.10303,0.02979
MPU2,10.04580,45.34351,129.16031,0.26221,0.18774,0.19043
MPU1,-1.46565,-23.41985,110.03053,0.24854,-0.02808,0.20996
MPU2,-36.38168,71.12977,119.05344,0.39771,0.16089,0.29639
MPU1,-65.77100,40.12214,119.19084,0.43115,0.06885,-0.03052
MPU2,-86.90076,28.80916,77.35878,0.16309,0.16455,0.30005
MPU1,-82.32061,48.00000,72.74809,0.36768,-0.27490,0.44678
MPU2,-115.12977,108.67175,49.89313,0.53223,0.08325,0.81665
MPU1,-98.24428,106.88550,30.53435,0.58228,-0.59766,0.68018
MPU2,-115.46565,124.93130,-20.30534,0.45557,-0.04932,0.80396
MPU1,-83.74046,143.74046,-14.39695,0.33521,-0.77563,0.80371
MPU2,-121.84733,96.58015,-84.38168,0.17554,-0.26172,1.22852
MPU1,-29.22137,156.21375,-20.18321,-0.04370,-1.12598,1.11938
MPU2,-100.68702,99.69466,-110.68702,0.08838,-0.43188,1.24585
MPU1,-19.16031,129.58778,-72.45802,-0.20459,-0.98828,0.97803
MPU2,-99.81680,93.00764,-114.19847,-0.00464,-0.44287,1.26611
MPU1,-50.79389,132.15266,-65.61832,-0.34741,-0.69312,0.92236
MPU2,-91.03817,62.48855,-129.95419,-0.06152,-0.49316,1.38647
MPU1,-56.94656,78.13741,-118.12214,-0.39551,-1.06226,1.23438
MPU2,-49.09924,-2.71756,-146.76335,-0.21362,-0.58936,1.38501
MPU1,-29.45038,49.57252,-118.94656,-0.64062,-1.03394,1.20410
MPU2,-12.58015,15.38931,-137.80153,-0.21362,-0.60376,1.36914
MPU1,33.16031,92.07633,-110.64122,-0.53784,-1.23999,1.16772
MPU2,41.98473,49.45038,-121.86259,-0.31372,-0.75293,1.36328
MPU1,84.54962,85.95420,-76.51908,-0.90088,-1.08716,1.07202
MPU2,91.43511,27.67939,-85.96947,-0.53369,-0.76025,1.30273
MPU1,108.82442,15.35878,-63.45038,-1.10303,-1.02783,1.08252
MPU2,126.58015,2.24427,-35.25191,-0.50098,-0.70264,1.28931
MPU1,124.53435,-39.55725,-16.45802,-1.10596,-0.88257,0.98926
MPU2,143.19084,-30.18321,-1.74046,-0.55542,-0.47266,1.09668
MPU1,107.09924,-57.86259,-2.45802,-0.82593,-0.58545,0.74780
MPU2,142.61069,-31.14504,25.41985,-0.43652,-0.30200,0.94702
MPU1,125.45038,-72.12214,24.97710,-0.87964,-0.54834,0.69727
MPU2,136.32062,-42.29008,53.29771,-0.48145,-0.21118,0.91968
MPU1,84.74809,-86.13741,35.95420,-0.72290,-0.31104,0.53589
MPU2,111.57252,-51.54198,81.72519,-0.39160,-0.16113,0.69531
MPU1,67.89313,-109.74046,69.58778,-0.70752,-0.25366,0.51343
MPU2,92.62595,-26.32061,106.15267,-0.16870,-0.01807,0.88818
MPU1,8.76336,-64.77863,129.08397,-0.34570,-0.19116,0.42798
MPU2,63.29771,23.84733,116.04580,-0.06885,0.05859,0.62427
MPU1,26.61069,-78.61069,94.59542,-0.06714,-0.39111,0.56812
MPU2,57.89313,-36.29008,112.25954,-0.03955,0.10376,0.20605
MPU1,13.37405,-88.99236,87.35878,-0.03711,0.05225,0.17700
MPU2,32.61069,-0.97710,117.81680,0.19678,0.10156,0.43066
MPU1,14.99237,-72.00000,98.10687,0.17114,-0.18750,0.39893
MPU2,26.06107,16.91603,120.50381,0.28076,0.13599,0.26172
MPU1,-2.00000,-25.51145,109.51145,0.31641,0.08813,0.12573
MPU2,-11.55725,52.87023,111.41985,0.29126,0.21899,0.38818
MPU1,-20.87023,-18.29008,107.31298,0.23755,-0.15479,0.41138
MPU2,-24.59542,35.75573,92.85497,0.28540,0.07349,0.26172
MPU1,-26.93130,6.00000,74.00000,0.45532,-0.19727,0.45557
MPU2,-48.59542,48.90076,60.87023,0.33911,0.20435,0.45850
MPU1,-60.65649,24.44275,46.03053,0.35669,-0.21045,0.51929
MPU2,-70.91603,34.18320,11.98473,0.39990,0.12329,0.67822
MPU1,-26.07634,97.17558,38.15267,0.51880,-0.54175,0.80688
MPU2,-78.90076,150.38168,-30.61069,0.51221,0.11450,0.93115
MPU1,-22.07634,142.59541,-18.19847,0.47168,-0.70801,0.80273
MPU2,-69.03817,68.90076,-112.00000,0.03955,-0.11670,0.87744
MPU1,31.70992,130.56488,-68.53435,-0.07666,-0.82520,0.94873
MPU2,-76.65649,132.90076,-124.67175,0.18530,-0.23315,1.18408
MPU1,-2.36641,163.00763,-78.06107,-0.13135,-0.42993,0.56543
MPU2,-131.28244,99.37405,-119.89313,-0.24072,-0.19653,1.11230
MPU1,-66.00000,128.38168,-76.83969,-0.67188,-0.48657,0.80396
MPU2,-158.48856,39.67939,-117.89313,-0.31519,-0.35107,1.11401
MPU1,-140.96184,67.29771,-81.70992,-0.64185,-0.76440,0.90942
MPU2,-124.80916,-12.01527,-116.22900,-0.18262,-0.53345,1.14062
MPU1,-104.32061,58.15267,-108.29008,-0.18140,-1.08301,1.15991
MPU2,-72.29008,42.41221,-121.09924,-0.06104,-0.72656,1.49072
MPU1,-24.01527,89.05344,-82.56489,-0.75073,-1.40698,1.44238
MPU2,6.99237,12.51908,-108.87023,-0.37744,-0.92871,1.41943
MPU1,42.79389,50.88550,-87.63359,-0.69971,-1.34277,1.32544
MPU2,78.68702,49.35878,-81.11450,-0.26172,-0.95874,1.57544
MPU1,112.68702,54.00000,-29.23664,-1.01660,-1.33716,1.32227
MPU2,135.16031,20.56489,-41.69466,-0.48364,-0.81519,1.35547
MPU1,125.46565,-6.10687,-22.21374,-0.91675,-1.06104,1.01245
MPU2,164.59541,3.08397,-11.11450,-0.50781,-0.64795,1.21851
MPU1,158.74809,-48.73283,4.65649,-1.06860,-0.95264,0.95117
MPU2,180.88550,-18.56489,25.03817,-0.62256,-0.46851,1.07056
MPU1,149.06870,-74.62595,5.29771,-0.95142,-0.55298,0.63062
MPU2,157.17557,-35.58779,58.12214,-0.62183,-0.31494,0.84546
MPU1,137.92366,-111.23664,53.22137,-1.14087,-0.50220,0.68604
MPU2,151.43512,-63.81680,94.01527,-0.53735,-0.14844,0.76465
MPU1,99.02290,-124.54962,68.33588,-0.66846,-0.23828,0.43384
MPU2,134.58015,-59.98473,106.39695,-0.29053,0.01147,0.69067
MPU1,37.63359,-113.72519,72.10687,-0.33228,-0.07617,0.32593
MPU2,89.93893,-61.43512,125.41985,-0.15381,0.20361,0.44653
MPU1,53.41985,-135.64885,85.20611,-0.32690,-0.10571,0.39600
MPU2,64.51908,-50.35115,128.87022,0.03125,0.12109,0.43384
MPU1,3.28244,-91.77100,103.40458,0.04688,0.04517,0.10571
MPU2,18.47328,23.81679,123.02290,0.17578,0.13428,0.41919
MPU1,11.84733,-44.07634,109.58778,0.10620,-0.22534,0.44458
MPU2,28.30534,8.51908,119.12977,0.12891,0.11841,0.25732
MPU1,25.29771,-60.79389,103.52672,0.10498,-0.06714,0.23413
MPU2,6.47328,2.33588,108.07633,0.18604,0.14014,0.24316
MPU1,-50.71756,-67.86259,4.71756,0.60596,-0.12915,0.17212
MPU2,-60.53435,-32.73283,64.42748,0.48022,0.14282,0.36328
MPU1,-34.83969,11.72519,120.51908,0.09473,0.06494,0.20850
MPU2,-80.44275,66.41222,90.15267,0.37427,0.18091,0.47876
MPU1,-83.29771,32.53435,69.48092,0.71875,-0.30103,0.30396
MPU2,-91.67939,68.35114,37.20611,0.66724,-0.02075,0.62329
MPU1,-55.96947,91.26717,57.74046,0.72412,-0.57544,0.60815
MPU2,-124.09161,137.06870,3.16031,0.59985,-0.13306,0.76831
MPU1,-95.08397,109.23664,-11.83206,0.46533,-0.81934,0.71240
MPU2,-114.50381,110.71756,-70.35114,0.37891,-0.29541,1.17822
MPU1,-8.73282,206.21375,25.26718,0.26709,-1.17188,1.05103
MPU2,-84.79389,146.54962,-102.93130,0.21582,-0.41187,1.30176
MPU1,-10.39695,190.82443,-31.06870,0.01758,-0.95557,1.03613
MPU2,-73.48092,156.01527,-111.67939,0.15332,-0.33960,1.30811
MPU1,-16.24427,116.16794,-73.34351,-0.36621,-0.72241,1.00757
MPU2,-104.25954,-0.24427,-122.16794,-0.06909,-0.29419,1.27441
MPU1,-109.00764,47.83206,-98.29008,-0.20264,-0.65674,0.98633
MPU2,-93.02290,-17.54198,-118.24428,0.14697,-0.34814,1.38281
MPU1,-61.00763,43.64885,-109.87786,-0.11646,-1.14990,1.47559
MPU2,-55.51145,-8.01527,-116.94656,0.17700,-0.50220,1.70557
MPU1,-62.27481,43.78626,-94.39695,-0.40112,-1.21411,1.46802
MPU2,13.75572,-45.09924,-112.32061,-0.33301,-0.72803,1.72095
MPU1,95.90839,-20.35114,-110.58015,-0.81836,-1.81616,1.93286
MPU2,114.44275,-20.32061,-94.25954,-0.19336,-0.82007,1.80664
MPU1,152.32062,-4.09160,-69.87786,-0.86621,-1.24805,1.29321
MPU2,159.41985,-16.82443,-53.26717,-0.33350,-0.59351,1.27661
MPU1,149.03816,-43.66412,-32.13741,-0.86304,-0.78296,0.84790
MPU2,169.11450,-26.96183,-23.12977,-0.41431,-0.33398,0.88867
MPU1,133.29771,-33.83206,1.75573,-0.64014,-0.42505,0.40869
MPU2,144.93130,-13.00763,12.18321,-0.24390,-0.21143,0.76099
MPU1,119.38931,-90.00000,27.89313,-0.70166,-0.42285,0.68262
MPU2,141.08397,-30.88550,35.25191,-0.24609,-0.01221,0.61816
MPU1,116.13741,-45.69466,48.93130,-0.29810,-0.19067,0.26660
MPU2,106.94656,9.00763,58.13741,-0.16504,0.01733,0.49487
MPU1,41.61832,-57.98473,65.02290,-0.40649,0.07349,0.28345
MPU2,74.48855,-1.43511,96.73283,-0.06934,-0.00195,0.48267
MPU1,53.95420,-70.44275,94.77863,-0.24854,-0.27173,0.46729
MPU2,75.80153,16.50382,125.40458,-0.08301,0.03442,0.46704
MPU1,15.38931,-78.41222,112.21374,-0.27148,-0.01489,0.24658
MPU2,35.77099,-32.87023,131.19084,0.13354,-0.02124,0.57373
MPU1,77.95420,-99.87786,90.15267,0.31396,-0.63623,0.83398
MPU2,45.43512,23.69466,114.12214,0.53223,0.19556,0.58398
MPU1,0.83969,0.74809,139.72519,0.49268,0.17212,0.10571
MPU2,-20.32061,31.74046,119.60305,0.35132,0.22461,0.35669
MPU1,-2.22901,-18.24427,101.57252,0.48950,-0.32153,0.48022
MPU2,-45.17557,62.87023,99.64886,0.51855,0.11841,0.33081
MPU1,-83.57252,2.07634,82.01527,0.49902,-0.03003,0.11328
MPU2,-103.83206,45.14504,72.61069,0.39233,0.09009,0.42065
MPU1,-92.10687,59.20611,70.33588,0.43359,-0.36401,0.39819
MPU2,-122.13741,84.06107,36.03053,0.52002,-0.07178,0.64575
MPU1,-95.63359,103.63359,31.96947,0.65723,-0.67041,0.66846
MPU2,-123.90839,107.40458,-28.04580,0.58545,-0.17773,0.91577
MPU1,-73.23664,100.30534,-49.61832,0.35498,-1.02588,0.98755
MPU2,-90.54962,52.87023,-101.40458,0.46021,-0.26367,1.06616
MPU1,-22.25954,177.02290,-52.96183,0.66553,-0.92554,0.86011
MPU2,-81.41985,156.06107,-128.88550,0.55591,-0.31982,1.21704
MPU1,-38.03053,181.12978,-90.67175,0.01587,-0.92017,0.84717
MPU2,-93.84733,60.73283,-134.07634,0.04248,-0.47266,1.16772
MPU1,-57.05344,80.45802,-94.71756,-0.34912,-0.89282,1.03076
MPU2,-98.39695,28.62595,-121.60305,0.17603,-0.40527,1.38184
MPU1,-82.38168,67.51145,-115.60305,-0.06445,-1.06494,1.17847
MPU2,-62.33588,-8.35114,-133.32825,0.15552,-0.55591,1.48145
MPU1,2.00000,84.19847,-110.99236,-0.07959,-1.44189,1.54492
MPU2,22.58015,26.33588,-129.96947,0.18237,-0.63623,1.74683
MPU1,44.33588,62.56488,-100.19847,-0.33057,-1.47461,1.72437
MPU2,110.61069,59.77099,-119.22137,0.01001,-0.73779,1.78223
MPU1,164.94656,92.56489,-70.32061,-0.67310,-1.54590,1.38403
MPU2,161.61832,50.47328,-66.99236,-0.39404,-0.73047,1.41040
MPU1,152.94656,1.84733,-38.42748,-1.09229,-0.88599,0.90454
MPU2,166.09160,-19.20611,-14.61069,-0.48193,-0.44849,1.08960
MPU1,149.03816,-41.54198,3.75573,-0.87183,-0.66138,0.75391
MPU2,160.33588,-19.02290,25.08397,-0.43457,-0.27271,0.94604
MPU1,92.22900,-75.80153,33.55725,-0.77686,-0.39893,0.51465
MPU2,144.12213,-59.87786,61.38931,-0.30444,-0.18042,0.89941
MPU1,116.18320,-76.53435,65.12977,-0.42749,-0.54956,0.61572
MPU2,151.89313,2.62595,66.80916,-0.18286,-0.00049,0.68872
MPU1,117.00764,-54.80916,56.12214,-0.26953,-0.22632,0.41895
MPU2,109.38931,-29.81679,68.73283,-0.30444,0.18115,0.53882
MPU1,60.29008,-98.87023,60.44275,-0.50586,0.02173,0.33740
MPU2,91.19084,-22.90076,114.64122,-0.00464,0.14941,0.33643
MPU1,63.05344,-96.42748,111.96947,-0.15698,-0.00928,0.35083
MPU2,68.79389,-20.30534,132.45801,0.04565,0.30078,0.29785
MPU1,21.81679,-99.93893,108.50381,0.06665,0.08911,0.20557
MPU2,28.33588,-12.79389,141.25191,0.26880,0.23193,0.29395
MPU1,-10.97710,-90.44275,116.85497,0.31519,-0.01221,0.16504
MPU2,-2.13740,-11.60305,142.13741,0.42993,0.10327,0.24634
MPU1,-85.03817,-98.97710,71.19084,0.56860,-0.03467,-0.05127
MPU2,-93.00764,-33.19084,116.79389,0.58667,0.04712,0.46265
MPU1,-97.34351,-42.29008,91.70992,0.59790,-0.46558,0.24854
MPU2,-27.72519,32.12214,114.53435,0.71606,-0.06177,0.00537
MPU1,-68.24428,-10.53435,104.91603,0.72583,-0.15723,0.08740
MPU2,-88.74809,76.25954,88.53435,0.77075,0.09497,0.28296
MPU1,-150.59541,53.08397,80.16794,1.02686,-0.36743,-0.01270
MPU2,-150.06107,138.24428,31.72519,0.88550,-0.05957,0.43823
MPU1,-98.24428,152.48856,103.46565,0.46606,-0.62866,0.31372
MPU2,-155.55725,131.51144,-21.64886,0.37183,-0.35083,0.95020
MPU1,-116.39695,160.80916,-2.29008,0.59277,-1.33472,0.65479
MPU2,-112.27481,127.86259,-64.62595,0.80493,-0.56128,1.09497
MPU1,-35.66412,206.99237,-10.29008,0.69946,-1.21753,0.68921
MPU2,-131.74046,183.38931,-126.16794,0.46899,-0.39648,1.32227
MPU1,-58.07634,235.55725,-14.64122,-0.02246,-1.10645,0.64087
MPU2,-116.30534,124.87023,-131.84734,0.16357,-0.43604,1.03101
MPU1,-77.72519,109.09924,-86.33588,-0.16602,-1.01807,0.78687
MPU2,-130.36641,8.88550,-131.84734,0.33862,-0.50122,1.46021
MPU1,-90.42748,137.66412,-103.34351,0.12988,-1.48779,1.12695
MPU2,-63.83206,17.06870,-133.90840,0.15625,-0.82544,1.71191
MPU1,17.26718,109.57252,-89.64886,-0.21826,-1.81958,1.41724
MPU2,21.08397,64.18320,-129.93893,0.19360,-0.80664,1.61890
MPU1,67.66412,123.16031,-78.76336,-0.33496,-1.60132,1.06274
MPU2,94.87023,55.00763,-103.67939,-0.06226,-0.96240,1.41016
MPU1,153.40459,68.68702,-40.07634,-0.67383,-1.62207,1.10034
MPU2,158.00000,45.92366,-61.34351,-0.23071,-0.81128,1.41772
MPU1,168.94656,8.33588,-26.09160,-0.78735,-1.31934,0.86426
MPU2,199.66412,-4.73282,-17.80153,-0.42969,-0.75293,1.18188
MPU1,201.93893,-61.03817,19.95420,-1.03101,-1.05957,0.64209
MPU2,201.55725,-19.70992,42.54962,-0.37402,-0.39648,0.97437
MPU1,161.63359,-86.90076,54.36641,-0.72485,-0.53638,0.40210
MPU2,174.21375,-35.72519,73.11450,-0.27051,-0.20117,0.75366
MPU1,127.89313,-85.93893,41.09924,-0.26709,-0.39575,0.38989
MPU2,145.74046,-16.76336,90.24428,-0.03760,-0.01294,0.58569
MPU1,97.63359,-78.68702,95.28244,-0.29688,-0.18311,0.24756
MPU2,116.51908,-18.65649,101.48092,-0.17261,-0.04565,0.57373
MPU1,62.04580,-82.79389,57.31298,-0.10327,-0.41333,0.41772
MPU2,138.58015,6.51908,118.74809,0.14966,-0.09595,0.29712
MPU1,123.37405,-77.95420,121.61832,-0.10059,-0.14453,0.21484
MPU2,86.62595,13.96947,127.26717,0.23853,0.23438,0.34131
MPU1,38.41221,-63.52672,109.26717,0.38867,0.12402,0.04541
MPU2,46.13741,48.22901,119.20611,0.41309,0.19580,0.16870
MPU1,29.54198,-26.03053,120.62595,0.31250,0.10376,0.16602
MPU2,9.22137,45.69466,128.07634,0.39795,0.25122,0.08618
MPU1,-98.88550,-21.06870,123.57252,0.47778,0.22534,-0.04248
MPU2,-86.41222,82.21374,110.39695,0.52954,0.22095,0.26562
MPU1,-116.48855,13.69466,146.12213,0.34961,-0.06616,0.23901
MPU2,-130.33588,106.53435,100.12214,0.51929,0.12451,0.42432
MPU1,-134.67175,35.70992,118.61069,0.47046,-0.50757,0.30615
MPU2,-156.68703,77.26717,43.92366,0.52051,-0.04126,0.74756
MPU1,-76.58015,94.13741,105.67939,0.57520,-0.97095,0.68994
MPU2,-185.57253,116.27481,6.27481,0.56177,-0.26147,1.21118
MPU1,-50.27481,133.22137,90.16794,0.44360,-1.05786,0.85913
MPU2,-165.35878,77.49619,-63.46565,0.23145,-0.29907,0.74023
MPU1,-80.09161,99.38931,12.64122,-0.03516,-1.04395,0.74780
MPU2,-144.76335,118.79389,-78.01527,0.45703,-0.49634,1.57300
MPU1,-30.93130,112.79389,-13.03817,0.10034,-1.12671,1.07520
MPU2,-106.25954,41.98473,-100.62595,0.03296,-0.57544,1.21167
MPU1,-60.76336,73.40458,-89.49619,-0.20190,-1.10132,1.00464
MPU2,-91.95420,-3.25191,-115.46565,0.14746,-0.48364,1.18579
MPU1,-62.12214,82.27481,-93.84733,0.00854,-0.87793,0.80786
MPU2,-84.90076,10.83969,-121.16031,0.19189,-0.50366,1.10791
MPU1,-42.79389,86.99236,-106.36641,-0.11353,-1.16260,0.97290
MPU2,-45.45038,31.58779,-133.78625,0.21875,-0.63940,1.15186
MPU1,-0.41221,119.41985,-122.85497,-0.02368,-1.14624,0.88330
MPU2,-0.06107,70.83969,-136.19847,0.20776,-0.78906,1.30908
MPU1,66.67175,128.50381,-90.73283,-0.45093,-1.53711,1.25488
MPU2,95.63359,117.32825,-112.38168,-0.00195,-0.97900,1.66553
MPU1,128.58015,142.19847,-47.20611,-0.98706,-1.61792,1.27124
MPU2,175.92366,93.00764,-48.93130,-0.41675,-0.90356,1.34814
MPU1,181.34351,24.22901,1.02290,-1.17432,-1.08179,0.82520
MPU2,188.96184,28.76336,12.79389,-0.50000,-0.59399,1.13062
MPU1,142.67175,-47.93893,39.38931,-0.97144,-0.66479,0.54175
MPU2,181.70993,-9.86260,61.52672,-0.46411,-0.37744,0.87939
MPU1,159.87787,-87.96947,55.08397,-0.69873,-0.66211,0.57617
MPU2,174.70229,-23.77099,83.86259,-0.31787,-0.19043,0.81567
MPU1,133.64885,-87.43511,69.31298,-0.49170,-0.40088,0.42896
MPU2,144.74809,-22.50382,105.00764,-0.23145,-0.03662,0.69092
MPU1,113.51145,-103.98473,85.77100,-0.50830,-0.36646,0.45996
MPU2,123.80153,-19.40458,124.30534,-0.15088,-0.03003,0.48364
MPU1,87.12977,-91.51145,98.07633,-0.23828,-0.15894,0.21338
MPU2,89.32825,-17.35878,145.78625,-0.13550,-0.10156,0.50659
MPU1,95.16031,-127.90839,125.26717,-0.48193,-0.41235,0.41895
MPU2,74.29008,-41.72519,158.77863,0.08154,0.00146,0.25610
MPU1,73.43511,-93.11450,129.54199,0.30762,-0.04272,-0.07080
MPU2,25.49618,5.20611,145.09924,0.45264,0.06055,0.32812
MPU1,-29.60305,-23.35878,113.66412,0.59375,0.10449,-0.09497
MPU2,-47.46565,47.05344,134.39694,0.62280,0.12402,0.32300
MPU1,-89.34351,-19.93893,129.51144,0.56299,-0.12988,0.26538
MPU2,-101.75572,69.92367,102.90076,0.67847,0.20605,0.38037
MPU1,-146.27481,25.16031,88.67175,0.87793,-0.21655,0.26855
MPU2,-150.74809,79.00764,40.91603,0.76685,0.10840,0.67065
MPU1,-133.14503,110.79389,79.83206,0.64233,-0.64917,0.60327
MPU2,-193.55725,91.67939,-11.93893,0.62183,-0.23535,0.97754
MPU1,-104.25954,124.22900,22.56489,0.65845,-1.04712,1.02124
MPU2,-151.80153,82.45802,-64.50381,0.61475,-0.26001,0.88745
MPU1,-105.64886,158.12213,-21.26718,0.52515,-0.85840,0.66040
MPU2,-151.03816,89.45038,-88.64122,0.43018,-0.43530,1.06152
MPU1,-75.49619,101.20611,-59.41985,0.12793,-1.07935,1.01465
MPU2,-126.24428,44.62595,-110.64122,0.28394,-0.45166,1.14087
MPU1,-86.71756,102.87023,-58.41221,-0.04346,-0.94775,0.86523
MPU2,-103.49619,30.82443,-110.03053,0.20752,-0.47583,1.08105
MPU1,-78.64122,61.52672,-106.03053,0.07495,-1.00049,0.91162
MPU2,-85.78626,10.76336,-127.32825,0.33472,-0.55127,1.19116
MPU1,-39.00763,83.90839,-99.58778,0.04858,-1.20728,1.02881
MPU2,-47.17557,40.38168,-141.17557,0.33105,-0.65088,1.23535
MPU1,-2.82443,112.04580,-117.61832,-0.00635,-1.26294,0.98169
MPU2,5.02290,62.00000,-141.02290,0.23779,-0.84424,1.34570
MPU1,70.41222,114.87023,-89.38931,-0.37598,-1.51489,1.18188
MPU2,81.31298,81.00764,-114.88550,0.06006,-0.92896,1.40869
MPU1,124.44275,89.61832,-63.45038,-0.54053,-1.32227,1.10522
MPU2,136.10687,58.41221,-74.03053,-0.07471,-0.80664,1.31104
MPU1,163.60306,34.54962,-25.40458,-0.70679,-1.08130,1.01978
MPU2,151.60306,47.28244,-18.58015,-0.24976,-0.48120,1.13525
MPU1,104.16794,20.32061,34.29008,-0.80957,-0.32788,0.60083
MPU2,118.51908,10.65649,53.00763,-0.32837,-0.34399,0.87256
MPU1,68.74809,-120.61069,50.65649,-1.00342,-0.62646,0.85669
MPU2,140.18321,-66.76336,70.53435,-0.35522,-0.26978,0.92456
MPU1,97.84733,-92.88550,40.27481,-0.36499,-0.61206,0.61499
MPU2,156.53435,-3.02290,81.51145,-0.15405,-0.20068,0.87378
MPU1,76.59542,-24.35114,86.58015,-0.31909,-0.28735,0.26416
MPU2,128.13741,15.51145,115.83206,-0.07031,-0.15918,0.43799
MPU1,117.11450,-81.09924,96.27481,-0.23682,-0.42334,0.43726
MPU2,119.63359,-7.92366,110.83969,-0.01074,0.06763,0.51978
MPU1,82.64122,-54.44275,92.22900,0.05518,-0.15845,0.30859
MPU2,78.06107,28.82443,124.59542,0.22461,0.19897,0.44971
MPU1,31.11450,-73.46565,91.45038,0.13477,-0.00171,0.33423
MPU2,35.19084,20.10687,94.29008,0.26514,0.26099,0.56494
MPU1,-24.27481,29.14504,83.64886,0.56860,-0.01514,0.09058
MPU2,-25.46565,82.41222,114.13741,0.41187,0.16626,0.32837
MPU1,-41.02290,-33.63359,113.96947,0.02393,-0.07227,0.33301
MPU2,-56.90076,15.16031,100.19847,0.23389,0.21191,0.39771
MPU1,-94.00000,-14.77863,93.28244,0.41699,-0.08203,0.17163
MPU2,-109.54198,43.64885,103.17558,0.62817,0.03076,0.56079
MPU1,-109.51145,4.03053,102.09161,0.58032,-0.56763,0.47754
MPU2,-126.88550,38.58015,57.31298,0.58545,-0.09692,0.78174
MPU1,-108.68702,18.19847,36.19847,0.89038,-1.04175,0.79370
MPU2,-94.07633,128.03053,-12.10687,0.82715,-0.20557,1.01855
MPU1,-82.10687,81.22137,1.02290,0.56714,-0.98584,0.69531
MPU2,-142.58015,53.90840,-88.73283,0.45605,-0.15723,0.81738
MPU1,-18.25954,166.80916,-2.54962,0.57422,-1.07861,1.00122
MPU2,-108.48855,158.94656,-119.23664,0.56006,-0.41528,1.24878
MPU1,-49.72519,144.27481,-85.38931,0.00732,-1.01343,0.89868
MPU2,-87.48092,30.97710,-149.80153,0.13623,-0.27905,0.92432
MPU1,-26.38168,140.61069,-95.81680,0.03394,-0.93945,0.74609
MPU2,-76.58015,78.90076,-139.58778,0.18481,-0.32739,1.11353
MPU1,-41.52672,117.66412,-109.60305,-0.23022,-0.78369,0.70337
MPU2,-63.45038,13.95420,-136.61069,-0.13257,-0.42139,1.13379
MPU1,-35.96947,101.72519,-96.61069,-0.54004,-0.99585,0.94531
MPU2,-30.90076,45.98473,-110.09161,0.04346,-0.47803,1.22778
MPU1,23.12977,98.94656,-79.70992,-0.23804,-1.00220,0.95508
MPU2,8.51908,43.54198,-112.96183,-0.10913,-0.48853,1.24707
MPU1,29.37405,124.33588,-56.82443,-0.65137,-1.08496,0.84619
MPU2,51.40458,74.59542,-78.36641,-0.15576,-0.57812,1.15771
MPU1,83.08397,81.93893,-38.56488,-0.68140,-0.96118,0.88550
MPU2,82.71756,41.43512,-50.48855,-0.31128,-0.50635,1.27637
MPU1,109.48092,41.67939,4.10687,-0.81348,-0.98145,1.11621
MPU2,119.57252,51.14504,-18.03053,-0.27539,-0.36304,1.32886
MPU1,128.06107,25.35878,19.16031,-0.71631,-0.80835,1.01855
MPU2,131.63359,30.48855,5.02290,-0.40186,-0.28809,1.29541
MPU1,133.54199,-2.01527,57.57252,-0.98853,-0.85522,1.04517
MPU2,155.19084,53.20611,60.07634,-0.55591,-0.35767,1.13330
MPU1,145.51144,-26.80916,116.07633,-1.32739,-0.63232,0.70972
MPU2,148.65649,26.00000,121.63359,-0.62378,-0.22852,0.85840
MPU1,100.36641,-104.51908,124.32061,-0.94727,-0.42456,0.48804
MPU2,143.32825,-21.93893,154.48856,-0.46704,-0.06616,0.59155
MPU1,125.41985,-131.67938,150.96184,-0.63257,-0.43604,0.48462
MPU2,121.81680,-2.27481,179.72519,-0.20117,0.08716,0.51050
MPU1,57.58779,-118.27481,162.79390,-0.28687,-0.06079,0.06616
MPU2,75.61832,-15.69466,179.28244,-0.07227,0.13135,0.34546
MPU1,20.39695,-121.05344,150.39694,-0.03491,-0.11694,0.15942
MPU2,34.45802,10.96183,172.96184,0.17773,0.17017,0.32104
MPU1,-32.33588,-70.51908,147.83206,0.21118,0.01318,0.03564
MPU2,-45.90840,31.41985,154.58015,0.20337,0.21265,0.31519
MPU1,-102.64122,-58.33588,133.37404,0.18066,-0.02710,0.05347
MPU2,-98.94656,35.90840,139.03816,0.35254,0.12842,0.39941
MPU1,-137.11450,-5.00763,120.22900,0.52881,-0.38037,0.19434
MPU2,-116.67175,79.34351,97.05344,0.42627,0.03760,0.43872
MPU1,-142.80916,19.81679,93.41985,0.36841,-0.53833,0.37573
MPU2,-134.42747,58.51908,38.48855,0.24951,-0.12329,0.87231
MPU1,-101.67939,53.35878,68.54962,0.10889,-0.98560,0.78809
MPU2,-98.32061,73.93893,4.65649,0.36621,-0.23633,1.24854
MPU1,-31.58779,68.91603,-7.23664,0.43213,-1.12012,1.01709
MPU2,-76.41222,57.51145,-47.64885,0.47217,-0.31860,1.19556
MPU1,-19.23664,88.21374,-31.95420,0.54712,-1.07739,0.97729
MPU2,-62.01527,92.51908,-102.97710,0.35107,-0.14355,1.14941
MPU1,-8.01527,139.95419,-43.25191,0.06885,-0.69800,0.62476
MPU2,-76.18320,62.83969,-124.38168,0.03931,-0.18262,1.01929
MPU1,-11.89313,117.12977,-74.33588,0.02490,-0.67896,0.85522
MPU2,-91.54198,80.42748,-138.50381,0.23193,-0.07129,1.08984
MPU1,-99.60305,156.94656,-106.83969,0.00146,-0.51221,0.49585
MPU2,-96.71756,41.58779,-128.44275,0.07397,-0.21143,1.03247
MPU1,-36.70229,67.89313,-102.41222,-0.30029,-0.98169,1.35229
MPU2,-56.38168,12.32061,-125.86259,0.04517,-0.31445,1.50879
MPU1,-25.86259,84.06107,-87.70992,-0.36450,-1.12598,1.30981
MPU2,-11.49618,0.10687,-125.89313,-0.02075,-0.38794,1.47656
MPU1,24.93130,81.81680,-99.81680,-0.32349,-1.30469,1.28345
MPU2,48.04580,28.33588,-108.97710,-0.13428,-0.61548,1.60938
MPU1,98.32061,45.70992,-74.19847,-0.89062,-1.41187,1.38794
MPU2,109.46565,-1.38931,-76.73283,-0.41406,-0.62183,1.51074
MPU1,140.25954,16.56489,-35.37405,-0.84766,-1.14746,1.15454
MPU2,152.30534,5.35878,-39.93893,-0.33398,-0.41968,1.31079
MPU1,162.42747,-15.34351,-20.80916,-0.70044,-0.85938,0.92456
MPU2,167.40459,-4.21374,-17.67939,-0.38306,-0.23633,1.12402
MPU1,143.61832,-8.88550,5.69466,-0.67310,-0.52979,0.66919
MPU2,157.29771,-3.37405,17.93893,-0.47949,-0.10913,0.90405
MPU1,160.68703,-36.79389,33.67939,-0.86060,-0.52881,0.59204
MPU2,156.93130,-13.96947,66.97710,-0.70483,-0.25366,0.70532
MPU1,117.70992,-111.35878,50.06107,-1.51270,-0.50684,0.36279
MPU2,161.92366,-44.51908,114.47328,-0.64771,-0.25122,0.29590
MPU1,152.56488,-95.22137,123.64886,-0.64282,-0.06323,-0.14795
MPU2,90.45802,1.29771,142.87022,-0.14233,0.10962,0.10034
MPU1,14.76336,-61.96947,118.00000,0.09033,0.40942,-0.46313
MPU2,-12.99237,40.76336,145.05344,0.14038,0.19238,0.08716
MPU1,-73.38931,-37.19084,164.58015,0.02588,0.19800,-0.14209
MPU2,-93.06870,71.92367,148.56488,0.28467,0.17407,0.19922
MPU1,-155.06870,-18.16794,118.27481,0.47656,-0.06201,-0.00122
MPU2,-163.70993,53.70992,93.06870,0.51318,0.05103,0.62378
MPU1,-161.54199,54.70229,120.68702,0.57422,-0.73901,0.46240
MPU2,-184.65649,72.62595,39.28244,0.58789,-0.15698,0.83618
MPU1,-172.42747,45.43512,-0.65649,0.95361,-1.09937,0.72510
MPU2,-186.73282,76.00000,-44.94656,0.66724,-0.24561,0.85840
MPU1,-136.65649,172.99237,-18.09160,0.42188,-1.08325,0.67261
MPU2,-178.61069,71.57252,-96.71756,0.53809,-0.47729,1.20239
MPU1,-79.70992,178.77863,-60.07634,0.12231,-1.19995,0.77832
MPU2,-171.38931,61.08397,-113.66412,0.29297,-0.53979,1.18921
MPU1,-124.73283,102.64122,-97.63359,0.00317,-1.17700,0.69189
MPU2,-138.93130,15.22137,-113.78626,0.24951,-0.51733,1.08911
MPU1,-100.04580,76.38168,-90.35114,-0.19092,-1.27539,0.91040
MPU2,-98.30534,7.83206,-120.59542,0.16113,-0.69360,1.28198
MPU1,-46.64122,94.76336,-93.72519,-0.10181,-1.37476,0.99585
MPU2,-51.41985,49.89313,-126.19847,0.18335,-0.80737,1.35767
MPU1,-7.32824,116.41222,-85.77100,-0.40527,-1.52637,0.98657
MPU2,17.63359,59.03817,-98.79389,0.01050,-0.92920,1.30835
MPU1,74.94656,79.70992,-53.55725,-0.55737,-1.37280,1.01807
MPU2,73.54198,37.06870,-69.54198,-0.10986,-0.79492,1.34180
MPU1,103.38931,25.17557,-38.33588,-0.60376,-1.25806,1.07251
MPU2,115.92367,8.54962,-48.80916,-0.07642,-0.65234,1.19727
MPU1,126.09161,27.48092,-13.34351,-0.38647,-1.03442,0.80518
MPU2,139.12978,33.72519,-17.02290,-0.06470,-0.57568,1.25220
MPU1,148.33588,0.33588,14.04580,-0.57056,-1.09863,0.99292
MPU2,166.33588,13.60305,6.36641,-0.12939,-0.43262,1.15625
MPU1,158.15266,-17.03817,25.19084,-0.41138,-0.84448,0.79907
MPU2,171.83206,37.74046,28.38168,-0.07935,-0.31958,1.13281
MPU1,150.35115,-17.40458,53.45038,-0.58838,-0.79199,0.77808
MPU2,178.65649,9.03817,49.63359,-0.26514,-0.29907,0.88843
MPU1,159.64885,-47.63359,68.42748,-0.57764,-0.61328,0.51611
MPU2,166.42747,30.94657,83.37405,-0.19482,-0.23560,0.79077
MPU1,109.22137,-55.80153,88.82442,-0.59961,-0.39868,0.31445
MPU2,126.96183,21.02290,100.19847,-0.30371,-0.09717,0.49341
MPU1,80.73283,-41.95420,126.70229,-0.41431,-0.11597,0.13599
MPU2,80.94656,40.87023,135.12978,-0.09912,0.02979,0.29370
MPU1,33.70992,-54.64122,120.04580,-0.06616,-0.07007,0.05176
MPU2,27.46565,15.40458,130.67175,0.06616,0.06567,0.29736
MPU1,-16.16794,-56.77863,109.43511,0.12939,-0.10864,0.14795
MPU2,-13.89313,24.27481,123.81680,0.27588,0.14087,0.35449
MPU1,-60.27481,-41.09924,109.90839,0.34131,-0.08228,0.21533
MPU2,-69.03817,22.41221,102.65649,0.38550,0.18701,0.37939
MPU1,-100.90076,-41.20611,86.32061,0.46021,-0.17285,0.28857
MPU2,-113.84733,21.78626,73.14503,0.61255,0.16431,0.56299
MPU1,-105.11450,9.92366,56.10687,0.81860,-0.46851,0.54150
MPU2,-149.96947,30.50382,23.11450,0.64648,0.17725,0.77441
MPU1,-144.93130,36.19847,6.74809,0.75244,-0.72534,0.63672
MPU2,-163.02290,56.38168,-50.06107,0.59058,-0.08398,1.01880
MPU1,-110.59542,150.58015,-28.90076,0.31348,-0.78418,0.62695
MPU2,-174.19847,43.95420,-93.72519,0.43530,-0.34326,1.18848
MPU1,-125.48092,133.55725,-75.25191,0.64453,-1.31274,0.86621
MPU2,-133.08397,63.75573,-138.77863,0.59863,-0.37231,1.32275
MPU1,-79.89313,115.69466,-123.78626,0.16479,-1.41895,1.14160
MPU2,-92.48855,-2.29008,-161.48091,0.28833,-0.45654,1.31201
MPU1,-60.19847,118.85497,-126.51908,-0.07373,-1.23438,0.89209
MPU2,-65.78626,25.02290,-143.58778,0.14282,-0.49951,1.29370
MPU1,-11.52672,80.82442,-123.89313,-0.49976,-1.24097,1.02222
MPU2,-17.81679,-7.70992,-116.22900,-0.20288,-0.61011,1.31738
MPU1,42.47328,62.36641,-64.15267,-0.77905,-1.12500,1.02075
MPU2,26.45802,19.83206,-78.15267,-0.16992,-0.44360,1.08740
MPU1,59.22137,40.22901,-46.38168,-0.42065,-0.71118,0.66309
MPU2,46.25954,58.07634,-51.03817,-0.14209,-0.46460,1.22266
MPU1,87.17558,91.19084,34.85496,-0.64380,-0.91431,0.81934
MPU2,72.59542,45.67939,-13.34351,-0.22339,-0.39966,0.88208
MPU1,66.80916,7.96947,13.16031,-0.28857,-0.62598,0.70996
MPU2,84.12214,29.58779,3.74046,0.23413,-0.13208,1.20947
MPU1,62.71756,-41.55725,4.35115,-0.00342,-0.77319,1.40430
MPU2,111.49619,-23.11450,-15.43511,0.27539,0.19702,1.30469
MPU1,127.05344,25.60305,30.35114,0.02808,-0.51196,0.99878
MPU2,85.49619,71.92367,19.19084,-0.10889,0.06982,1.24512
MPU1,51.49618,28.97710,78.67175,-0.88184,-0.33228,0.92188
MPU2,79.06870,53.45038,81.00764,-0.66431,0.00830,1.02295
MPU1,84.54962,-74.32061,80.21374,-1.09058,-0.59497,1.01904
MPU2,107.57252,23.66412,116.16794,-0.42554,-0.07861,0.72607
MPU1,86.03053,-35.38931,152.15266,-0.59521,-0.22876,0.33545
MPU2,77.43511,73.51145,158.68703,-0.17139,-0.03760,0.44946
MPU1,62.90076,-52.47328,167.92366,-0.37573,-0.26367,0.19141
MPU2,43.11450,25.48092,171.98473,-0.04565,-0.07983,0.24878
MPU1,13.64886,-90.88550,147.16031,-0.01855,-0.16821,0.01001
MPU2,-12.01527,4.29008,157.37404,0.13770,-0.03052,0.36646
MPU1,-56.74809,-66.41222,150.48856,0.16089,-0.20312,0.02808
MPU2,-56.58015,17.14504,141.84734,0.30591,-0.03174,0.51733
MPU1,-89.23664,-59.05344,92.15267,0.45776,-0.50269,0.44189
MPU2,-77.55725,5.57252,97.63359,0.42090,-0.03345,0.67529
MPU1,-116.04580,-29.34351,62.62595,0.47534,-0.53760,0.56665
MPU2,-95.96947,11.75572,52.33588,0.54468,-0.03516,0.96826
MPU1,-74.25954,28.09160,66.96183,0.47046,-0.93799,0.91748
MPU2,-104.94656,94.16794,16.04580,0.45557,-0.08789,1.00732
MPU1,-122.58015,81.26717,22.64122,0.35327,-0.54272,0.63623
MPU2,-121.64886,51.40458,-37.14504,0.30444,-0.14917,1.05396
MPU1,-39.09924,92.33588,-19.63359,0.29810,-1.16187,1.07568
MPU2,-90.15267,58.39695,-88.41222,0.25366,-0.25317,1.16699
MPU1,-92.33588,109.70992,-61.37405,0.00073,-0.78955,0.65161
MPU2,-100.51908,75.78626,-98.62595,0.21851,-0.35620,1.09546
MPU1,-23.23664,136.68703,-22.88550,-0.09790,-0.96924,0.86157
MPU2,-58.36641,54.42748,-128.67175,-0.19482,-0.35181,1.14331
MPU1,-54.18320,60.80916,-114.15267,-0.55518,-1.05078,0.86279
MPU2,-41.61832,18.99237,-121.87786,0.05591,-0.44116,1.25488
MPU1,14.61069,104.53435,-77.63359,-0.19873,-1.01001,0.94263
MPU2,-6.90076,37.67939,-110.19847,-0.08862,-0.34058,1.42285
MPU1,28.64122,58.22901,-86.94656,-0.66260,-1.07495,1.15942
MPU2,45.05344,-28.33588,-106.97710,-0.26196,-0.38135,1.23730
MPU1,84.12214,26.91603,-99.83206,-0.48511,-1.00439,1.02295
MPU2,76.22900,-18.03053,-93.75572,-0.36768,-0.46240,1.37964
MPU1,119.67939,19.22137,-61.90840,-1.17139,-1.08301,1.05127
MPU2,104.29008,-8.41221,-47.19084,-0.62427,-0.56079,1.32593
MPU1,127.35878,-16.19847,-13.17557,-1.24219,-0.82520,0.83276
MPU2,113.26717,-4.83969,9.29771,-0.48096,-0.38110,1.22876
MPU1,118.61069,-34.68702,30.06107,-0.81543,-0.65186,0.79907
MPU2,116.39695,0.35115,40.88550,-0.31470,-0.23853,1.10767
MPU1,121.52672,-44.56488,48.54962,-0.58594,-0.57715,0.80493
MPU2,124.68702,-19.37405,54.29008,-0.39380,-0.09009,0.84326
MPU1,124.33588,-52.24427,55.22137,-0.60059,-0.31909,0.53687
MPU2,97.48092,19.09924,83.06870,-0.20142,-0.05786,0.65723
MPU1,76.59542,-46.25954,80.13741,-0.37231,-0.14990,0.29395
MPU2,66.68702,-6.64122,88.53435,-0.21191,0.04541,0.27515
MPU1,31.11450,-47.31298,74.35114,-0.23291,0.02783,0.08203
MPU2,20.35114,10.77863,99.28244,-0.01685,0.03809,0.49805
MPU1,-8.99237,-42.79389,93.57252,-0.17725,-0.18579,0.30908
MPU2,-7.03817,4.30534,88.83969,-0.03394,0.01245,0.42871
MPU1,-23.87786,-25.38931,61.54198,0.10742,-0.19360,0.35156
MPU2,-47.22137,8.88550,63.37405,0.09473,0.04834,0.59863
MPU1,-76.12214,-20.16794,45.74046,0.07568,-0.24683,0.44800
MPU2,-79.83206,-1.81679,29.37405,0.16846,0.00977,0.66089
MPU1,-73.86259,36.41221,45.40458,0.22485,-0.37744,0.49072
MPU2,-128.91603,67.00764,11.55725,0.39697,-0.05298,0.86597
MPU1,-143.98473,46.00000,14.65649,0.16968,-0.62476,0.49487
MPU2,-123.48092,19.17557,-51.69466,0.00879,-0.25171,0.68359
MPU1,-50.54962,38.10687,-51.19084,0.01416,-0.92212,0.93945
MPU2,-125.81680,29.96947,-90.71756,0.30151,-0.27686,0.92871
MPU1,7.26718,51.52672,-90.29008,0.23096,-1.15747,0.93213
MPU2,-85.78626,4.36641,-122.68702,0.23682,-0.51611,1.23706
MPU1,-7.89313,126.47328,-75.43511,0.16235,-0.71436,0.86621
MPU2,-85.22137,82.16794,-121.69466,0.30298,-0.26855,1.13989
MPU1,-33.92366,100.77863,-81.02290,-0.35938,-0.65088,0.93896
MPU2,-77.40458,25.29771,-108.38168,0.02661,-0.34839,1.10767
MPU1,-37.58779,49.78626,-80.19847,-0.26123,-0.67847,1.15625
MPU2,-55.17557,20.27481,-109.03817,0.18213,-0.25171,1.13330
MPU1,-32.39695,53.11450,-86.71756,-0.03027,-0.50195,0.93384
MPU2,-54.85496,18.51908,-105.48092,0.10596,-0.36304,1.16553
MPU1,-16.71756,68.64122,-73.11450,-0.27783,-0.93896,1.21606
MPU2,-18.19847,57.64885,-102.64122,0.08154,-0.48511,1.16968
MPU1,7.89313,90.41222,-76.06107,-0.28491,-0.81519,0.97583
MPU2,6.77863,34.93130,-83.92367,0.01660,-0.60669,1.22021
MPU1,29.45038,14.50382,-63.02290,-0.63452,-1.02686,1.30347
MPU2,57.09924,11.03817,-63.72519,-0.09644,-0.57983,1.35303
MPU1,57.74046,22.74809,-39.06870,-0.51245,-0.81470,1.16699
MPU2,81.63359,10.03053,-21.72519,-0.16211,-0.56787,1.43384
MPU1,80.58015,-27.52672,-1.86260,-0.82788,-0.97485,1.44995
MPU2,123.84733,-14.45802,17.92366,-0.35278,-0.51074,1.38770
MPU1,96.50381,-55.31298,10.99237,-0.76855,-0.75146,1.09717
MPU2,137.74046,-42.15267,52.51908,-0.27856,-0.46216,1.24634
MPU1,115.55725,-107.86259,40.42748,-0.89575,-0.88135,1.10938
MPU2,151.67938,-46.48855,79.28244,-0.29883,-0.34375,1.06982
MPU1,106.03053,-49.93893,90.42748,-0.49878,-0.43774,0.54541
MPU2,119.22137,4.30534,114.50381,-0.18945,-0.17603,0.90039
MPU1,6.21374,-115.16031,61.78626,-0.52124,-0.32764,0.48804
MPU2,88.82442,-57.40458,127.14503,-0.13306,-0.13647,0.74390
MPU1,50.00000,-111.58778,91.03817,-0.29688,-0.47754,0.52124
MPU2,80.13741,-58.61069,119.35878,-0.02710,-0.10889,0.73120
MPU1,28.88550,-130.36641,56.94656,-0.09326,-0.39502,0.46997
MPU2,60.07634,-93.69466,111.78626,0.08643,-0.05908,0.53711
MPU1,42.45802,-102.35114,75.34351,0.02246,-0.34399,0.37646
MPU2,70.24428,-1.55725,117.23664,0.29199,-0.04102,0.41553
MPU1,28.22901,-81.25191,87.74046,0.14087,-0.11182,0.16992
MPU2,48.39695,-27.03817,99.54198,0.20557,0.08203,0.34058
MPU1,4.35115,-55.60305,74.67175,0.31006,-0.17676,0.26172
MPU2,50.64122,52.99237,95.14503,0.41406,-0.00903,0.23975
MPU1,47.52672,-4.59542,126.73283,0.18408,-0.22046,0.26587
MPU2,36.29008,76.41222,90.70229,0.27710,0.07544,0.35767
MPU1,2.82443,26.99237,90.70229,0.42651,-0.19360,0.17236
MPU2,5.66412,78.59542,64.25954,0.40942,0.00464,0.35425
MPU1,11.19084,35.03817,79.64886,0.39990,-0.42798,0.49951
MPU2,8.79389,78.73283,19.70992,0.49023,0.11499,0.62305
MPU1,20.18321,74.76336,36.09160,0.69189,-0.45996,0.58765
MPU2,4.79389,62.00000,-59.23664,0.37866,0.08618,0.74731
MPU1,50.64122,131.64885,-14.33588,0.53345,-0.58936,0.78418
MPU2,-60.74809,105.19084,-97.57252,0.46509,0.07031,1.01685
MPU1,30.50382,114.56489,-46.29008,0.08838,-0.52588,0.89111
MPU2,-88.06107,60.39695,-151.05344,0.15845,0.08032,1.09766
MPU1,-0.13740,107.41985,-126.76336,0.19287,-0.57886,0.82886
MPU2,-117.96947,81.40458,-143.66412,0.21094,0.06641,1.16187
MPU1,-44.54962,170.30534,-58.88550,-0.21948,-0.14307,0.80420
MPU2,-158.10687,81.67939,-105.23664,0.09497,0.23267,1.07812
MPU1,-118.13741,48.13741,-95.05344,-0.16699,-0.12427,1.05029
MPU2,-176.59541,-99.12977,-127.67939,0.09277,-0.01929,1.25122
MPU1,-145.03816,24.47328,-102.24428,0.20459,-0.91846,1.50391
MPU2,-115.29771,35.89313,-140.53435,0.47363,-0.45459,1.72583
MPU1,-26.32061,147.31297,-106.70229,-0.20312,-1.49365,1.86157
MPU2,6.32061,56.47328,-132.97710,-0.32739,-0.91528,1.69214
MPU1,67.06870,42.07634,-95.20611,-1.23120,-1.16089,1.73364
MPU2,72.70229,41.96947,-88.29008,-0.42578,-0.62305,1.52759
MPU1,69.16031,28.04580,-53.17557,-1.02417,-0.69165,1.21655
MPU2,111.70992,-9.34351,-44.76336,-0.63745,-0.56323,1.23730
MPU1,123.52672,-15.69466,-17.81679,-0.99316,-0.70117,1.18530
MPU2,144.87022,6.00000,-6.41221,-0.59375,-0.42163,1.21924
MPU1,103.95420,-10.00000,1.78626,-0.83496,-0.34961,0.79126
MPU2,136.59541,-14.00000,34.59542,-0.53638,-0.27905,0.92188
MPU1,124.00000,-56.44275,31.69466,-0.80786,-0.40723,0.79492
MPU2,139.25191,15.35878,53.23664,-0.39990,-0.14502,0.97241
MPU1,91.74046,-3.05344,59.90840,-0.46533,-0.19849,0.52124
MPU2,131.46565,30.07634,83.81680,-0.27222,-0.09302,0.63623
MPU1,124.99236,-33.00763,91.55725,-0.53613,-0.20605,0.54932
MPU2,113.41985,25.02290,101.14503,-0.32886,-0.01392,0.67676
MPU1,70.36641,-24.70229,106.04580,-0.42017,0.04370,0.33960
MPU2,73.69466,55.61832,117.20611,-0.18872,0.10986,0.57495
MPU1,-9.17557,-24.85496,76.03053,-0.24463,0.12231,0.26099
MPU2,35.54198,12.29008,131.64885,-0.00171,0.05591,0.29297
MPU1,8.19847,-50.93130,122.77863,-0.22119,-0.21826,0.50391
MPU2,10.07634,20.83969,127.00764,0.14282,0.08813,0.41260
MPU1,-36.73283,-30.33588,115.90839,0.21753,-0.06104,0.21118
MPU2,-21.57252,26.47328,96.99236,0.23657,0.12598,0.43799
MPU1,-47.20611,6.68702,93.12977,0.35767,-0.22217,0.41113
MPU2,-49.34351,76.62595,71.60305,0.38672,0.09082,0.40771
MPU1,-64.39695,23.93893,68.44275,0.32642,-0.23901,0.35376
MPU2,-76.39695,15.48092,19.32825,0.13867,0.00366,0.51147
MPU1,-62.99237,18.68702,20.21374,0.32324,-0.44751,0.60815
MPU2,-88.85497,46.47328,-25.45038,0.33838,-0.01758,0.79199
MPU1,-40.21374,101.81680,4.03053,0.39600,-0.43677,0.53101
MPU2,-107.29771,25.08397,-62.01527,0.06152,-0.09839,0.84863
MPU1,-32.79389,23.61832,-63.75573,-0.05933,-0.59985,0.91870
MPU2,-127.05344,40.50382,-91.80153,0.12402,-0.06348,1.06909
MPU1,-115.28244,106.58015,-38.90076,-0.14404,-0.32471,0.63330
MPU2,-150.77863,57.86259,-89.41985,-0.04102,-0.10986,1.04858
MPU1,-103.09924,67.95420,-85.58778,-0.20020,-0.74683,1.21411
MPU2,-140.38168,47.58779,-118.91603,-0.00513,-0.05493,1.40356
MPU1,-119.25191,139.49619,-77.08397,-0.12817,-0.44043,1.10791
MPU2,-124.32061,17.43511,-119.26717,-0.14502,-0.11523,1.48901
MPU1,-72.25954,83.60305,-105.92367,-0.50806,-1.18042,1.86353
MPU2,-46.77863,39.60305,-123.77100,-0.08325,-0.35376,1.83496
MPU1,-27.49618,115.63359,-105.60305,-0.55957,-1.11499,1.53345
MPU2,22.51908,54.18320,-97.29771,-0.25537,-0.67065,1.68579
MPU1,91.19084,70.04580,-62.35115,-0.94360,-1.36841,1.69580
MPU2,103.09924,45.55725,-66.09161,-0.46558,-0.60474,1.58105
MPU1,93.70992,41.12977,-45.67939,-1.03394,-0.89697,1.11816
MPU2,135.86259,-2.07634,-8.99237,-0.55518,-0.55078,1.20068
MPU1,143.37404,-53.90840,6.67176,-1.23682,-0.89185,1.03662
MPU2,156.58015,-20.03053,28.99237,-0.69751,-0.39453,1.11694
MPU1,133.14503,-62.61069,31.54198,-1.07275,-0.53174,0.63892
MPU2,152.48856,-27.11450,76.50381,-0.67896,-0.31763,0.90430
MPU1,96.68702,-98.38168,58.06107,-1.05981,-0.44653,0.49243
MPU2,137.26718,-27.70992,110.73283,-0.61841,-0.23560,0.65381
MPU1,99.05344,-67.78626,126.73283,-0.81348,-0.29419,0.25073
MPU2,107.43511,9.02290,142.21375,-0.42651,-0.12817,0.46069
MPU1,54.10687,-116.76336,90.48855,-0.50586,-0.22363,0.24512
MPU2,82.21374,-35.09924,138.12213,-0.22510,-0.01001,0.37183
MPU1,46.06107,-88.85497,119.19084,-0.26929,-0.12500,0.13257
MPU2,47.95420,-3.49618,142.91603,0.01025,0.04126,0.27051
MPU1,-4.00000,-88.51908,113.45038,0.01367,-0.03711,0.02148
MPU2,-1.22137,-16.77863,128.88550,0.06641,0.09106,0.21973
MPU1,-29.69466,-72.64122,106.03053,0.13599,-0.09692,0.10352
MPU2,-20.99237,23.08397,121.32825,0.32056,0.07129,0.38184
MPU1,-43.92366,-8.35114,117.67939,0.41699,-0.22095,0.34106
MPU2,-24.09160,60.90076,78.10687,0.38672,0.12500,0.55396
MPU1,-50.44275,46.01527,97.90839,0.52588,-0.36523,0.62036
MPU2,-59.46565,112.19847,42.51908,0.39526,0.14111,0.83740
MPU1,-50.54962,64.29008,51.67939,0.31055,-0.44312,0.75049
MPU2,-91.38931,40.12214,-7.08397,0.18359,0.06445,0.93066
MPU1,-48.88550,58.94656,-0.71756,0.30347,-0.79639,0.99878
MPU2,-76.88550,48.12214,-61.69466,0.40259,0.00610,1.08911
MPU1,-48.85496,73.74046,-39.66412,0.27515,-0.73389,0.93945
MPU2,-80.64122,28.73282,-87.54198,0.27661,-0.07544,1.20337
MPU1,18.51908,94.27481,-62.70229,0.12354,-0.76416,1.12817
MPU2,-89.98473,44.58015,-102.09161,0.05444,-0.02930,1.24976
MPU1,-64.29008,68.36641,-83.75572,-0.26562,-0.38745,0.94995
MPU2,-100.32061,-5.89313,-100.03053,-0.02026,0.07910,1.00391
MPU1,-74.71756,47.64885,-87.22137,-0.11328,-0.31909,0.81763
MPU2,-114.29008,-35.86259,-103.58778,-0.01758,-0.07617,1.20728
MPU1,-85.51145,56.25954,-51.70992,-0.46973,-0.85522,1.24390
MPU2,-71.67939,62.96183,-99.23664,-0.02002,-0.27710,1.27148
MPU1,-15.37405,107.83206,-73.08397,-0.22974,-0.74243,1.03540
MPU2,-35.17557,-8.82443,-114.77863,-0.42798,-0.40137,1.23413
MPU1,0.90076,31.35878,-100.88550,-0.76367,-0.98926,1.15381
MPU2,-9.92366,9.49618,-109.60305,-0.09448,-0.48267,1.19043
MPU1,25.22137,88.24428,-72.33588,-0.31641,-0.79321,0.72778
MPU2,7.96947,37.19084,-88.32061,-0.16504,-0.67798,1.07056
MPU1,78.68702,63.25191,-55.41985,-0.59302,-1.14722,0.99268
MPU2,38.73283,46.64122,-70.03053,-0.10034,-0.55322,1.06689
MPU1,47.46565,37.75573,-53.40458,-0.50952,-0.61646,0.66553
MPU2,42.36641,4.12214,-50.42748,-0.26270,-0.40430,0.77319
MPU1,40.99237,-14.24428,-56.45802,-0.54517,-0.33252,0.61450
MPU2,24.67175,-58.00000,-44.38168,-0.21655,-0.15283,0.79907
MPU1,-5.70992,-6.97710,-46.65649,-0.22388,-0.32788,0.61597
MPU2,41.64885,70.29008,-18.70229,0.04224,-0.27905,1.52222
MPU1,62.68702,103.51145,33.72519,-0.78418,-0.99658,1.83447
MPU2,126.06107,33.89313,20.39695,-0.59961,-0.10205,1.58301
MPU1,90.64122,-0.22901,27.45038,-0.92163,-0.46826,1.46802
MPU2,164.58015,14.25954,81.29771,-0.47754,0.12329,1.57959
MPU1,47.51145,-131.54199,17.96947,-1.18408,-0.59839,1.39087
MPU2,148.77863,-79.12977,98.74809,-0.40112,-0.02979,1.09277
MPU1,128.56488,-101.75572,96.83969,-0.61816,-0.59985,0.65210
MPU2,114.04580,23.64886,121.02290,-0.11890,-0.15698,1.08862
MPU1,106.51908,-85.78626,112.42748,-0.44751,-0.62622,0.54980
MPU2,117.96947,-86.67175,124.45802,-0.40698,-0.16309,0.33130
MPU1,120.97710,-165.03816,77.75572,-0.53125,-0.34961,0.22852
MPU2,105.81680,-49.74046,137.57253,-0.03052,-0.06934,0.34839
MPU1,68.21374,-106.19847,119.35878,-0.02051,-0.12036,-0.09937
MPU2,85.57252,-14.85496,128.24428,0.04858,0.04565,0.17529
MPU1,46.93130,-85.11450,102.15267,0.10400,-0.01709,0.09839
MPU2,49.25191,7.52672,132.15266,0.21167,0.16650,0.18872
MPU1,5.93893,-56.76336,110.93130,0.29565,0.03833,0.06470
MPU2,10.82443,21.75573,115.83206,0.26855,0.18237,0.19678
MPU1,-37.16031,-33.35878,82.85497,0.39941,0.01392,0.19629
MPU2,-25.25191,43.35878,75.80153,0.29810,0.21167,0.27686
MPU1,-46.88550,-9.14504,73.23664,0.20361,-0.00732,0.22925
MPU2,-70.85497,3.16031,61.51145,0.20752,0.13037,0.48047
MPU1,-100.10687,0.67176,57.84733,0.37231,-0.21997,0.28955
MPU2,-78.27481,60.48855,62.15267,0.42920,-0.13037,0.56909
MPU1,-77.20611,37.40458,64.01527,0.28101,-0.60278,0.69531
MPU2,-115.03817,59.55725,27.45038,0.35645,0.00122,0.88647
MPU1,-92.82442,54.22901,37.75573,0.46338,-0.67041,0.67212
MPU2,-141.43512,54.12214,-28.42748,0.57544,-0.14819,1.08618
MPU1,-97.40458,73.43511,-17.43511,0.66211,-0.98022,0.87598
MPU2,-138.36641,102.18320,-74.74809,0.65234,-0.28760,1.38257
MPU1,-81.03817,134.06107,-27.75573,0.38428,-1.01050,1.04028
MPU2,-131.69466,60.56488,-107.93893,0.47314,-0.29736,1.43652
MPU1,-91.09924,113.40458,-58.10687,0.28394,-1.08252,1.20215
MPU2,-102.51908,40.62595,-112.73283,0.44312,-0.35059,1.49609
MPU1,-48.82443,67.00764,-82.16794,0.02197,-1.17358,1.51001
MPU2,-63.84733,-23.06870,-103.55725,0.32129,-0.29321,1.63916
MPU1,-52.24427,18.59542,-95.38931,-0.02661,-1.05542,1.58716
MPU2,-13.48092,-33.37405,-103.23664,0.40063,-0.20215,1.52490
MPU1,32.87023,35.41985,-89.86259,0.21167,-1.03760,1.45776
MPU2,32.18320,32.65649,-101.03817,0.30591,-0.24194,1.61816
MPU1,63.28244,67.80153,-33.69466,-0.46143,-1.00830,1.43213
MPU2,83.51145,-2.06107,-72.22900,-0.19678,-0.34839,1.25928
MPU1,98.67175,-0.56489,-29.43511,-0.45850,-0.79077,1.16016
MPU2,119.22137,-8.93130,-43.80153,-0.17871,-0.28955,1.34717
MPU1,94.64122,-79.19084,-33.83206,-0.64014,-0.70142,1.11475
MPU2,123.25191,-57.12977,-18.51908,-0.14038,-0.08716,1.12964
MPU1,114.36641,-14.94656,36.15267,-0.40088,-0.36377,0.84058
MPU2,117.46565,31.93893,31.32825,-0.18604,-0.03809,0.95947
MPU1,79.35878,-90.87023,-16.83969,-0.49048,-0.23462,0.72144
MPU2,79.26717,-88.04580,39.45038,-0.20142,0.04883,0.77832
MPU1,52.61069,-41.17557,72.54962,-0.39014,-0.12305,0.53833
MPU2,83.03817,67.63359,92.76336,0.05127,0.06714,0.63477
MPU1,61.37405,-35.06870,87.89313,-0.20361,-0.20288,0.52490
MPU2,50.15267,33.35878,88.48855,0.01001,0.04907,0.56323
MPU1,57.69466,6.87023,164.15266,-0.21582,-0.19800,0.42114
MPU2,31.67939,76.70229,112.68702,0.04053,0.08740,0.33496
MPU1,54.12214,-0.36641,103.64886,0.33228,-0.27075,0.38281
MPU2,20.24427,7.11450,82.82442,0.12842,0.05835,0.37329
MPU1,20.10687,-34.27481,78.32061,0.14282,-0.10815,0.25488
MPU2,-4.44275,20.62595,92.99236,0.31030,0.05908,0.36011
MPU1,-21.98473,-19.67939,90.41222,0.16650,-0.12671,0.23022
MPU2,-25.72519,17.98473,87.35878,0.21582,0.01636,0.41113
MPU1,-23.87786,-12.32061,63.31298,0.23877,-0.34375,0.44336
MPU2,-34.70229,-1.08397,59.90840,0.25342,-0.04663,0.60107
MPU1,-43.67939,14.29008,30.65649,0.47876,-0.41040,0.42505
MPU2,-51.93893,55.52672,35.09924,0.50098,-0.04907,0.65723
MPU1,-31.77099,41.02290,8.70229,0.38940,-0.57129,0.59253
MPU2,-75.51145,2.33588,-8.12214,0.34082,-0.18091,0.83838
MPU1,-14.59542,33.60305,-36.58015,0.36841,-0.82642,0.92676
MPU2,-77.89313,56.13741,-61.46565,0.34082,-0.17041,0.81470
MPU1,-47.83206,34.38168,-75.63359,0.09106,-0.56323,0.60815
MPU2,-89.17558,36.68702,-101.67939,0.17822,-0.28320,1.02441
MPU1,-33.64885,196.13741,-43.38931,0.43066,-0.91626,0.77197
MPU2,-77.63359,174.62596,-131.40459,0.31445,-0.37451,1.10962
MPU1,-14.53435,200.54962,-95.75572,0.00195,-0.77246,0.78418
MPU2,-80.09161,120.15267,-161.57253,-0.04565,-0.26709,1.14844
MPU1,-36.90076,208.51909,-94.70229,-0.28320,-0.64722,0.83716
MPU2,-95.70992,131.75572,-138.04581,0.04614,-0.15088,1.23779
MPU1,-100.91603,113.89313,-119.51145,-0.48877,-0.50928,1.13013
MPU2,-92.85497,-21.16031,-131.08397,-0.14087,-0.17920,1.46069
MPU1,-49.38931,47.46565,-118.70229,-0.38940,-1.10132,1.84741
MPU2,-20.56489,2.09160,-124.27481,-0.13257,-0.48413,1.82153
MPU1,18.87023,75.11450,-84.65649,-0.69824,-1.19263,1.64844
MPU2,58.16794,46.30534,-77.26717,-0.31714,-0.64111,1.59741
MPU1,81.11450,33.52672,-43.98473,-1.04688,-1.08496,1.36572
MPU2,112.56489,6.87023,-35.16031,-0.64526,-0.60962,1.36743
MPU1,128.82443,-29.60305,-1.34351,-1.22705,-0.94336,1.19507
MPU2,147.06870,-20.41221,17.38931,-0.61206,-0.49194,1.20142
MPU1,131.45038,-70.67175,20.24427,-0.97046,-0.64844,0.84399
MPU2,158.41222,-31.12977,51.35878,-0.54517,-0.35400,1.05737
MPU1,117.25191,-81.37405,33.12977,-0.79858,-0.57886,0.67334
MPU2,162.12213,-43.87786,79.49619,-0.41016,-0.26660,0.87598
MPU1,106.16794,-76.01527,59.32824,-0.62183,-0.49268,0.57544
MPU2,157.29771,-30.90076,95.80153,-0.31445,-0.16895,0.73828
MPU1,70.18320,-66.45802,29.19084,-0.16968,-0.29883,0.37866
MPU2,105.60305,-11.12977,55.16031,-0.16846,0.09546,0.42578
MPU1,48.50382,2.91603,45.02290,-0.23730,0.08130,0.09888
MPU2,38.97710,-9.49618,92.13741,-0.13599,0.07397,0.42383
MPU1,-9.90840,-90.94656,70.82442,-0.47046,-0.08032,0.42407
MPU2,45.81680,-28.24427,124.77863,0.02026,0.02881,0.41040
MPU1,28.90076,-98.45802,92.36641,-0.06567,-0.24292,0.43530
MPU2,27.22137,-14.41221,121.51145,0.15259,0.13892,0.51172
MPU1,-22.21374,-82.74809,82.39695,0.14746,-0.07593,0.23633
MPU2,-27.28244,-18.39695,106.93130,0.20190,0.10718,0.52148
MPU1,-22.74809,-58.38168,108.47328,0.09473,-0.25391,0.40039
MPU2,-24.53435,11.12977,122.10687,0.32422,0.01880,0.32886
MPU1,-72.22900,-64.99236,82.47328,0.39917,-0.14771,0.18555
MPU2,-88.35114,28.47328,85.28244,0.40747,0.08496,0.51904
MPU1,-100.13741,-5.77099,92.71756,0.35449,-0.30811,0.35352
MPU2,-101.84733,46.03053,66.44275,0.47241,-0.01001,0.57544
MPU1,-84.56489,21.80153,64.70229,0.56982,-0.54126,0.52710
MPU2,-104.27481,30.97710,13.16031,0.49902,-0.08667,0.70093
MPU1,-91.57252,52.24427,0.80916,0.83545,-0.76440,0.60449
MPU2,-143.17557,99.98473,-52.73283,0.56055,-0.17798,0.94165
MPU1,-55.37405,180.56488,40.51908,0.16724,-0.78613,0.63110
MPU2,-135.06870,104.74809,-88.54962,0.33691,-0.33521,1.05884
MPU1,-59.29771,152.09160,-51.05344,0.41772,-1.06299,0.83862
MPU2,-125.28244,142.42747,-125.25191,0.56152,-0.34033,1.05786
MPU1,-60.65649,166.33588,-83.05344,0.05566,-0.89673,0.62402
MPU2,-128.91603,75.46565,-127.72519,0.08813,-0.54712,1.20410
MPU1,-55.05344,106.00000,-47.87786,-0.53369,-1.12305,1.08447
MPU2,-100.79389,-15.84733,-105.60305,0.12476,-0.53491,1.19263
MPU1,-99.96947,34.45802,-115.16031,0.14795,-1.09570,1.05005
MPU2,-59.84733,7.09924,-123.37405,0.52026,-0.70703,1.55078
MPU1,33.96947,91.87786,-94.62595,0.09204,-1.72095,1.63696
MPU2,27.08397,62.99237,-129.95419,0.18433,-0.92041,1.63843
MPU1,79.17558,91.28244,-74.29008,-0.55469,-1.40186,1.20801
MPU2,92.51908,45.98473,-96.90076,0.00830,-0.93872,1.38159
MPU1,132.64122,40.32061,-60.24427,-0.57349,-1.43872,1.13525
MPU2,142.76335,27.45038,-71.66412,-0.07812,-0.80640,1.35156
MPU1,161.83206,-2.44275,-29.41985,-0.72607,-1.06763,0.95044
MPU2,170.74809,1.32824,-34.09160,-0.17261,-0.58936,1.22949
MPU1,148.01527,-32.61069,-6.51908,-0.67554,-0.87207,0.83545
MPU2,178.01527,-9.61832,-1.02290,-0.38721,-0.42578,1.03320
MPU1,168.21375,-57.45038,21.45038,-0.90869,-0.62085,0.64673
MPU2,163.35878,-19.48092,51.92366,-0.32495,-0.27051,0.95020
MPU1,111.40458,-89.12977,31.96947,-0.61060,-0.36694,0.56519
MPU2,153.25191,-48.29008,68.03053,-0.24683,-0.10840,0.69165
MPU1,93.69466,-67.38931,50.93130,-0.44946,-0.19043,0.36523
MPU2,120.15267,43.26717,103.22137,-0.03687,-0.00464,0.66455
MPU1,19.40458,-60.61069,-9.31298,-0.02808,-0.16235,0.23853
MPU2,48.71756,-81.80153,27.41985,-0.31836,0.19995,0.30981
MPU1,-3.63359,-17.63359,34.18320,-0.26392,0.00659,0.25684
MPU2,45.54198,26.10687,134.58015,0.31128,-0.11987,0.27734
MPU1,56.44275,-84.03053,111.84733,-0.12378,-0.25391,0.45752
MPU2,53.26717,-32.77863,105.98473,0.04761,0.17578,0.38257
MPU1,21.95420,-74.21374,91.35878,0.19507,-0.01831,0.21558
MPU2,11.67939,26.54962,119.12977,0.42334,0.09814,0.42627
MPU1,-27.17557,-34.67176,109.75572,0.32520,-0.05469,0.22632
MPU2,-32.56488,48.04580,113.46565,0.43945,0.18628,0.41699
MPU1,-56.65649,-18.38168,123.49619,0.30542,-0.06372,0.32300
MPU2,-76.42748,49.95420,102.07633,0.46753,0.15698,0.51953
MPU1,-74.67175,16.64122,99.93893,0.58447,-0.31030,0.48511
MPU2,-104.73283,56.42748,82.70229,0.55811,0.08008,0.52441
MPU1,-46.03053,14.71756,57.41985,0.65015,-0.53711,0.65454
MPU2,-140.97710,57.57252,14.56489,0.35254,0.03638,0.72437
MPU1,-76.93130,61.35878,48.39695,0.28076,-0.38184,0.62012
MPU2,-163.02290,84.13741,-29.16031,0.55518,-0.10376,0.99805
MPU1,-90.18320,132.06107,2.53435,0.61475,-0.77686,0.83838
MPU2,-151.77100,73.25191,-61.80153,0.43604,-0.51245,1.27832
MPU1,-81.41985,102.67175,-33.93893,0.13110,-1.13867,1.18677
MPU2,-135.58778,44.87023,-82.48855,0.36255,-0.50659,1.10376
MPU1,-92.58015,66.32061,-69.89313,0.27686,-0.68726,0.76929
MPU2,-137.38931,10.03053,-91.23664,0.44556,-0.56567,1.15161
MPU1,-96.50381,59.03817,-69.54198,0.04590,-1.16235,1.11816
MPU2,-98.65649,-0.48855,-89.38931,0.48389,-0.63892,1.15918
MPU1,-67.87786,12.36641,-95.17558,0.19580,-1.07300,1.16699
MPU2,-66.16794,7.89313,-110.16794,0.49219,-0.74268,1.37451
MPU1,4.36641,78.07633,-83.48092,0.17896,-1.44873,1.37915
MPU2,4.68702,42.82443,-116.94656,0.30225,-0.84351,1.35498
MPU1,41.57252,77.41985,-72.59542,-0.23022,-1.17432,1.25854
MPU2,59.90840,92.19847,-85.37405,0.35889,-0.91577,1.52393
MPU1,103.02290,63.86259,-8.35114,-0.57593,-1.30176,1.30762
MPU2,135.16031,47.70992,-60.00000,-0.18384,-0.79883,1.16357
MPU1,158.39694,38.83969,12.06107,-0.58594,-0.97070,1.05273
MPU2,163.00763,30.25954,-8.56489,-0.10742,-0.56909,1.10132
MPU1,117.74046,-81.29771,25.37405,-0.72803,-0.59155,0.86377
MPU2,167.40459,-43.25191,13.75572,-0.20435,-0.36279,0.97729
MPU1,155.46565,-50.97710,26.42748,-0.30054,-0.63330,0.80762
MPU2,156.94656,-25.63359,42.70229,-0.01831,-0.13916,0.97729
MPU1,89.92367,-89.75572,24.12214,-0.30127,-0.25269,0.64014
MPU2,130.18321,-20.62595,65.87786,-0.01465,-0.01440,0.80347
MPU1,96.15267,-14.39695,100.65649,-0.28174,-0.28784,0.61475
MPU2,80.83969,94.06107,115.17558,0.11206,-0.02490,0.66504
MPU1,15.64886,-99.83206,76.50381,-0.53296,-0.09717,0.52075
MPU2,56.76336,-65.23664,111.12977,-0.10254,0.03760,0.58569
MPU1,30.04580,-40.56488,113.12977,0.05762,-0.30566,0.48584
MPU2,40.80916,89.14503,112.90076,0.37305,0.04980,0.61743
MPU1,6.19847,-72.67175,85.25191,-0.10645,-0.24219,0.43701
MPU2,27.29771,-55.40458,91.58778,0.04346,0.01440,0.25073
MPU1,-17.08397,-47.80153,79.57252,0.25903,-0.08936,0.05957
MPU2,-9.84733,41.34351,146.74809,0.33862,0.00879,0.45898
MPU1,-41.32824,-3.61832,86.39695,0.26660,-0.29175,0.26001
MPU2,-30.76336,45.64885,76.97710,0.26440,0.00879,0.25049
MPU1,-53.31298,8.41221,79.38931,0.33887,-0.26538,0.26147
MPU2,-73.72519,54.01527,47.77099,0.34595,-0.05322,0.64478
MPU1,-52.27481,93.87786,97.35878,0.26880,-0.49683,0.49243
MPU2,-94.09161,107.40458,30.09160,0.37134,-0.10254,0.70435
MPU1,-78.53435,60.18320,26.80916,0.39111,-0.60840,0.61475
MPU2,-107.69466,61.38931,-31.69466,0.46729,-0.16382,0.92383
MPU1,-26.77863,127.35878,10.64122,0.45557,-0.97778,0.86621
MPU2,-101.20611,138.01527,-71.75572,0.33936,-0.32568,1.12378
MPU1,-24.56489,165.96947,-5.02290,0.00220,-0.92310,0.87061
MPU2,-91.38931,113.43511,-96.54962,0.07788,-0.41357,1.16309
MPU1,-26.25954,165.28244,-19.52672,-0.16748,-0.75269,0.86377
MPU2,-93.90839,132.30534,-92.76336,0.19629,-0.34644,1.29761
MPU1,-77.46565,91.02290,-20.00000,-0.59570,-0.81372,1.06616
MPU2,-90.65649,-22.01527,-89.16031,-0.14575,-0.48657,1.33545
MPU1,-45.08397,42.25954,-56.25954,-0.26050,-1.14014,1.43921
MPU2,-31.60305,-1.70992,-88.74809,0.03857,-0.55884,1.58032
MPU1,-35.57252,9.02290,-74.18320,-0.44971,-1.00220,1.32129
MPU2,14.59542,-22.94657,-88.32061,-0.13989,-0.56836,1.43066
MPU1,64.01527,31.93893,-72.80916,-0.49292,-1.21216,1.38770
MPU2,73.78626,15.23664,-74.01527,-0.18530,-0.58960,1.40015
MPU1,60.74809,-26.67175,-90.54962,-0.71069,-0.89380,1.12451
MPU2,84.62595,-50.22901,-55.26717,-0.25635,-0.52832,1.26636
MPU1,112.42748,-14.30534,-42.24427,-0.75879,-0.97534,1.12158
MPU2,118.54962,21.84733,-21.38931,-0.23071,-0.53931,1.20508
MPU1,77.02290,-86.25954,-58.90076,-0.78271,-0.65723,0.87842
MPU2,96.16794,-109.61832,-12.68702,-0.24170,-0.30957,1.02246
MPU1,114.96183,-35.64885,-18.79389,-0.35571,-0.71851,0.92700
MPU2,126.10687,39.70992,15.58779,-0.03711,-0.25928,1.10669
MPU1,96.76336,-31.67939,8.13740,-0.48315,-0.42871,0.73291
MPU2,111.49619,-68.45802,25.43511,-0.37573,-0.12939,0.75415
MPU1,79.06870,-88.38168,-3.92366,-0.44751,-0.34009,0.66699
MPU2,115.60305,-22.21374,40.32061,0.04468,-0.08643,0.82104
MPU1,93.08397,-46.32061,51.93893,-0.25977,-0.23633,0.52148
MPU2,99.70992,-15.61832,55.61832,-0.11353,0.03027,0.56812
MPU1,70.94656,-69.37405,42.65649,-0.17871,-0.13940,0.51367
MPU2,95.52672,-16.91603,68.77863,0.12573,0.11963,0.66089
MPU1,2.47328,-117.05344,33.41985,-0.00903,-0.08350,0.58154
MPU2,44.41221,-43.00763,40.50382,-0.04639,0.34766,0.64404
MPU1,97.96947,-5.09924,39.51145,0.28882,-0.30249,0.54639
