sensor,gyro_x,gyro_y,gyro_z,acce_x,acce_y,acce_z
MPU1,3.34351,-2.91603,1.25191,0.00220,-0.31519,0.95898
MPU2,-0.16794,-0.32061,1.16031,0.02710,-0.01929,0.97168
MPU1,1.86260,-0.04580,1.77099,0.01538,-0.29663,0.91260
MPU2,-2.61069,-1.00763,1.12977,0.02686,-0.01221,0.94238
MPU1,-1.54198,-1.80153,1.43511,0.01367,-0.29712,0.92578
MPU2,-4.33588,0.12214,2.71756,0.02222,-0.01978,0.95654
MPU1,-1.78626,-0.51908,6.42748,-0.01147,-0.28760,0.94556
MPU2,-6.70229,-5.37405,6.67176,0.00488,0.01245,1.01025
MPU1,-8.83969,-8.70229,12.35114,-0.02051,-0.25610,1.10645
MPU2,-4.39695,-11.90840,26.80916,0.02441,0.12988,1.26367
MPU1,-14.76336,-48.58015,27.86259,-0.11450,-0.32861,1.48560
MPU2,23.64886,-61.19084,44.80916,0.03418,0.06177,1.43164
MPU1,31.89313,-91.80153,18.42748,0.12012,-0.59521,1.58765
MPU2,55.57252,-80.99236,39.05344,0.24707,-0.03296,1.31104
MPU1,50.58015,-102.62595,-7.29771,0.37061,-0.60449,1.15479
MPU2,64.77863,-81.60305,7.75573,0.39185,-0.08667,1.04077
MPU1,58.45802,-67.87786,-31.49618,0.50977,-0.51294,0.70264
MPU2,48.62595,-42.36641,-21.75573,0.45361,-0.07715,0.74805
MPU1,35.69466,-17.37405,-42.99237,0.49756,-0.32104,0.36304
MPU2,16.42748,-32.54962,-50.85496,0.36475,-0.04565,0.52515
MPU1,14.24428,-8.25954,-60.41221,0.36597,-0.30396,0.33057
MPU2,-14.54962,-20.61069,-76.82442,0.33813,-0.03076,0.44165
MPU1,-19.02290,33.92366,-80.38168,0.38770,-0.18774,0.15698
MPU2,-49.69466,11.05344,-88.45802,0.22485,-0.04224,0.44531
MPU1,-38.47328,65.49619,-66.25954,0.02515,-0.19043,0.32251
MPU2,-77.32825,43.49618,-84.79389,0.11084,-0.03296,0.45142
MPU1,-60.97710,93.63359,-52.27481,-0.03662,-0.08618,0.28198
MPU2,-105.63359,46.51908,-79.52672,-0.05444,-0.04077,0.55273
MPU1,-83.00764,87.51145,-37.23664,-0.32886,-0.18896,0.57300
MPU2,-122.27481,50.07634,-61.55725,-0.13232,-0.11084,0.69067
MPU1,-86.32061,98.06107,-1.25191,-0.41821,-0.22510,0.69165
MPU2,-124.12214,53.87786,-39.29771,-0.25903,-0.18384,0.84595
MPU1,-79.87786,88.01527,1.02290,-0.51538,-0.29980,0.92065
MPU2,-114.15267,48.35115,-6.47328,-0.39771,-0.28345,1.05762
MPU1,-64.44275,61.20611,24.51908,-0.71143,-0.38696,1.23267
MPU2,-92.71756,14.38168,28.29008,-0.46704,-0.35156,1.22168
MPU1,-50.21374,23.34351,49.03817,-0.67188,-0.52002,1.48462
MPU2,-60.33588,35.74046,67.84733,-0.30615,-0.37866,1.37378
MPU1,-31.89313,12.62595,91.63359,-0.76489,-0.43750,1.38940
MPU2,-29.57252,-19.43511,102.59542,-0.41724,-0.48999,1.45142
MPU1,-6.79389,-60.44275,98.53435,-0.41772,-0.69580,1.54785
MPU2,6.54962,-18.04580,130.18321,-0.14160,-0.47754,1.38232
MPU1,-21.46565,-115.67939,110.58015,-0.47095,-0.60962,1.29468
MPU2,35.86259,-100.19847,137.41985,-0.07031,-0.50195,1.41260
MPU1,13.57252,-133.63359,86.96183,-0.02148,-0.84985,1.23926
MPU2,59.63359,-93.61832,135.60306,0.12695,-0.53442,1.29370
MPU1,-2.58015,-156.10687,67.58778,0.08276,-0.88159,1.07935
MPU2,78.90076,-100.15267,115.00764,0.29443,-0.50317,1.21313
MPU1,48.68702,-145.40459,52.01527,0.24805,-1.00220,1.13818
MPU2,97.12977,-103.90839,85.28244,0.32446,-0.43213,1.19897
MPU1,28.25954,-143.35878,8.51908,0.44897,-0.76074,0.79932
MPU2,91.72519,-104.51908,49.84733,0.39893,-0.36792,1.15796
MPU1,61.63359,-121.98473,-13.06870,0.45093,-0.95020,1.05762
MPU2,100.70229,-106.18320,14.64122,0.41675,-0.27319,0.95557
MPU1,33.66412,-98.97710,-49.35878,0.52197,-0.56567,0.49316
MPU2,80.10687,-77.61832,-26.03053,0.44385,-0.16772,0.88867
MPU1,20.74809,-68.25954,-60.16794,0.36279,-0.65942,0.62183
MPU2,68.30534,-87.31298,-52.83969,0.44263,-0.16528,0.48096
MPU1,51.06870,-37.49618,-71.25191,0.49731,-0.37231,0.20312
MPU2,35.23664,-50.00000,-82.19847,0.44971,-0.06982,0.52075
MPU1,15.93893,-12.90076,-100.44275,0.44141,-0.36523,0.26270
MPU2,9.00763,-46.38168,-101.14503,0.39355,-0.03979,0.35498
MPU1,17.40458,28.00000,-95.43511,0.38623,-0.21118,0.19238
MPU2,-21.72519,12.48855,-109.38931,0.43091,0.06885,0.35059
MPU1,-15.12977,76.27481,-74.90076,0.33179,-0.00024,0.08984
MPU2,-62.15267,13.57252,-112.44275,0.28101,0.16016,0.30542
MPU1,-45.03817,67.75572,-80.83969,0.25781,-0.06323,0.30396
MPU2,-94.09161,21.72519,-113.63359,0.20166,0.16992,0.39526
MPU1,-75.11450,56.97710,-90.97710,0.07666,0.03760,0.32861
MPU2,-134.44275,-43.23664,-101.64886,0.04443,0.19531,0.44287
MPU1,-119.93893,16.27481,-56.50382,-0.11279,-0.00635,0.49561
MPU2,-164.76335,-20.41221,-74.18320,0.06079,0.07104,0.65356
MPU1,-86.80916,40.35115,-15.34351,-0.03345,-0.25366,0.81592
MPU2,-165.63359,45.72519,-34.41221,0.03638,-0.16333,0.95435
MPU1,-119.19084,78.74809,-3.95420,-0.21387,-0.38794,0.96289
MPU2,-145.55725,34.48855,-12.70229,-0.11011,-0.29468,1.04736
MPU1,-82.06107,95.58778,17.03817,-0.23608,-0.45166,1.20190
MPU2,-126.54962,55.89313,11.69466,-0.06934,-0.24268,1.26880
MPU1,-94.19847,65.67939,37.19084,-0.21265,-0.48584,1.22314
MPU2,-91.26717,47.35878,31.77099,-0.11621,-0.45117,1.35352
MPU1,-39.72519,51.34351,54.79389,-0.48022,-0.71362,1.60181
MPU2,-42.30534,28.50382,64.00000,-0.20776,-0.56226,1.47900
MPU1,-6.47328,13.95420,85.11450,-0.47803,-0.77881,1.62451
MPU2,6.71756,17.28244,95.03817,-0.16675,-0.57812,1.42651
MPU1,23.23664,-28.41221,100.87023,-0.46631,-0.76489,1.46997
MPU2,37.95420,-8.62595,123.92367,-0.08301,-0.51270,1.34717
MPU1,13.75572,-84.68702,116.42748,-0.15210,-0.70679,1.25293
MPU2,57.25191,-45.81680,138.64122,-0.02979,-0.51831,1.29053
MPU1,31.67939,-122.30534,98.74809,-0.25659,-0.83521,1.29565
MPU2,74.80916,-66.76336,146.70229,0.11841,-0.44312,1.18530
MPU1,13.17557,-119.12977,101.64886,-0.00903,-0.70898,0.80786
MPU2,74.24428,-79.06870,137.87787,0.13892,-0.41895,1.13770
MPU1,38.18320,-142.01527,85.16031,0.08276,-0.94629,1.09668
MPU2,91.14503,-89.72519,120.10687,0.29272,-0.39209,1.04224
MPU1,50.93130,-143.37404,53.00763,0.37158,-0.85107,0.76538
MPU2,95.09924,-91.60305,71.81680,0.46826,-0.36060,1.11841
MPU1,48.62595,-94.00000,12.10687,0.62231,-0.92920,0.81616
MPU2,107.11450,-61.66412,36.79389,0.52393,-0.32642,0.93188
MPU1,94.64122,-106.10687,-29.25191,0.50684,-0.80444,0.72461
MPU2,100.59542,-95.46565,-4.03053,0.42188,-0.23633,0.91626
MPU1,58.15267,-101.08397,-72.35114,0.65015,-0.65625,0.53638
MPU2,75.23664,-76.87023,-45.46565,0.62988,-0.13013,0.76953
MPU1,42.01527,-22.38168,-63.25191,0.66235,-0.43896,0.33105
MPU2,41.06870,-47.84733,-72.24428,0.54736,-0.04370,0.61353
MPU1,6.70229,-32.16794,-113.84733,0.64404,-0.38550,0.31494
MPU2,11.40458,-93.26717,-109.31298,0.44214,-0.00146,0.49023
MPU1,-15.64886,-5.34351,-132.33588,0.50903,-0.25903,0.27197
MPU2,-23.57252,-26.62595,-117.22137,0.54639,0.09229,0.49438
MPU1,-41.54198,57.41985,-109.80153,0.49048,-0.11987,0.14355
MPU2,-55.61832,-23.54198,-132.97710,0.35474,0.12427,0.33594
MPU1,-60.61069,50.67176,-123.72519,0.34888,-0.17358,0.27637
MPU2,-81.86259,19.06870,-139.54199,0.38770,0.15771,0.35352
MPU1,-73.49619,114.04580,-98.06107,0.24976,-0.07031,0.16772
MPU2,-110.94656,30.48855,-137.14503,0.17188,0.12939,0.36572
MPU1,-113.67939,83.35878,-107.70992,0.03491,-0.13696,0.34814
MPU2,-138.25954,11.75572,-125.89313,0.02100,0.07642,0.58643
MPU1,-111.45038,93.14503,-65.06870,-0.25513,-0.22168,0.67944
MPU2,-153.60306,20.25954,-98.15267,-0.06372,0.01807,0.73047
MPU1,-153.00763,81.52672,-64.62595,-0.18311,-0.27539,0.64136
MPU2,-157.95419,8.42748,-80.62595,-0.06323,-0.07788,0.88306
MPU1,-123.95420,79.48092,-30.82443,-0.31372,-0.51904,0.96729
MPU2,-146.67175,13.25191,-52.58015,-0.20435,-0.24268,1.02417
MPU1,-118.73283,55.49618,-12.58015,-0.44507,-0.49683,0.99780
MPU2,-133.02290,2.04580,-20.44275,-0.21216,-0.33350,1.08838
MPU1,-99.64886,27.23664,-1.80153,-0.46069,-0.69238,1.24487
MPU2,-98.32061,3.19084,27.57252,-0.34229,-0.50244,1.24023
MPU1,-60.45802,3.75573,64.01527,-0.70825,-0.73730,1.41455
MPU2,-50.94656,0.01527,74.22900,-0.31665,-0.52100,1.39453
MPU1,-22.48855,-17.34351,92.53435,-0.51465,-0.89233,1.47021
MPU2,5.32824,4.88550,114.41222,-0.20581,-0.62085,1.45117
MPU1,26.53435,-58.79389,112.09161,-0.50952,-1.01245,1.55737
MPU2,57.55725,-32.88550,142.94656,-0.17847,-0.60962,1.44751
MPU1,55.95420,-97.43511,129.75572,-0.35718,-1.09497,1.37207
MPU2,98.71756,-31.43511,161.23665,0.08252,-0.61694,1.42505
MPU1,86.39695,-111.00764,120.70229,-0.16284,-1.11060,1.26782
MPU2,119.86259,-53.45038,173.29771,0.22974,-0.49146,1.37280
MPU1,72.59542,-160.25954,108.25954,0.04028,-1.00586,0.99463
MPU2,125.48092,-93.90839,152.16794,0.35693,-0.37744,1.09961
MPU1,100.97710,-160.88550,71.38931,0.50513,-1.08618,0.85693
MPU2,132.71756,-77.64886,113.87786,0.58984,-0.28003,1.01440
MPU1,110.58015,-119.90839,45.38931,0.66870,-0.82617,0.60107
MPU2,119.32825,-78.80916,61.00763,0.55420,-0.15723,0.90649
MPU1,76.39695,-107.78626,-12.35114,0.73560,-0.66016,0.53687
MPU2,107.49619,-80.64122,9.46565,0.62622,-0.08374,0.77783
MPU1,92.33588,-65.78626,-44.07634,0.75073,-0.57495,0.54077
MPU2,89.72519,-76.27481,-40.30534,0.55444,-0.03174,0.67358
MPU1,61.28244,-58.90076,-101.64886,0.70874,-0.46143,0.40601
MPU2,62.96183,-70.42748,-82.09161,0.54614,0.00244,0.59326
MPU1,38.91603,-22.58015,-112.25954,0.52734,-0.30469,0.32080
MPU2,29.63359,-33.08397,-100.45802,0.53223,0.06128,0.46875
MPU1,13.66412,22.33588,-102.38168,0.44092,-0.12769,0.20068
MPU2,-13.14504,-25.90840,-117.11450,0.40454,0.12549,0.40649
MPU1,-33.72519,39.95420,-120.64122,0.45410,-0.12427,0.21533
MPU2,-47.84733,-3.77099,-121.20611,0.37744,0.17188,0.38501
MPU1,-62.53435,69.93893,-98.85497,0.28955,0.00537,0.21729
MPU2,-83.29771,-7.89313,-123.11450,0.21753,0.23218,0.44263
MPU1,-109.52672,48.88550,-104.35114,0.17090,-0.07739,0.39673
MPU2,-116.12214,-1.17557,-118.61069,0.23193,0.21680,0.53345
MPU1,-104.59542,93.84733,-80.27481,0.07690,-0.12354,0.56470
MPU2,-139.46565,1.51145,-102.90076,0.05347,0.21265,0.59839
MPU1,-151.49619,40.61069,-80.30534,-0.09082,-0.10376,0.58911
MPU2,-158.83969,-19.43511,-89.95420,-0.01709,0.11523,0.78979
MPU1,-128.87022,64.18320,-60.01527,-0.11719,-0.42480,0.88110
MPU2,-150.96184,-28.22901,-75.78626,-0.12500,-0.03345,0.84595
MPU1,-120.97710,9.86260,-53.11450,-0.32910,-0.38550,0.93213
MPU2,-148.15266,-2.88550,-34.04580,-0.02051,-0.12964,1.00806
MPU1,-104.07633,35.29771,-1.86260,-0.23486,-0.49854,0.95361
MPU2,-129.77100,-18.09160,-8.38168,-0.14185,-0.24707,1.00537
MPU1,-87.35878,-0.22901,12.61069,-0.24072,-0.55396,1.06030
MPU2,-112.76336,4.53435,17.37405,-0.06665,-0.37256,1.16260
MPU1,-63.14504,14.44275,45.08397,-0.34204,-0.66772,1.15527
MPU2,-78.03053,-7.63359,43.20611,-0.12891,-0.50024,1.27466
MPU1,-39.31298,13.28244,62.59542,-0.27759,-0.79224,1.26587
MPU2,-45.70992,24.85496,81.03817,-0.04224,-0.55078,1.28931
MPU1,-18.73282,-18.61069,88.15267,-0.30225,-0.88550,1.36279
MPU2,-5.20611,-2.90076,101.25191,-0.10010,-0.59741,1.31323
MPU1,-6.54962,-56.67176,102.74809,-0.47900,-0.85254,1.25049
MPU2,38.35115,-40.68702,122.53435,-0.00098,-0.67676,1.48560
MPU1,55.78626,-82.74809,104.13741,-0.12427,-1.21143,1.54150
MPU2,88.90076,-34.68702,141.12978,0.13989,-0.65552,1.49023
MPU1,69.25191,-128.06107,94.87023,-0.00537,-1.10254,1.24097
MPU2,122.45802,-54.06107,146.42747,0.19336,-0.54468,1.30396
MPU1,86.56489,-129.90840,85.74046,-0.05151,-1.00635,1.00732
MPU2,140.36641,-93.45038,141.34351,0.20874,-0.44287,1.12280
MPU1,104.01527,-132.70229,66.82442,0.26050,-0.81738,0.78442
MPU2,138.38168,-56.36641,133.48091,0.44263,-0.29736,1.08081
MPU1,93.75572,-99.41985,91.78626,0.38257,-0.67578,0.64844
MPU2,122.90076,-94.90076,101.17558,0.39380,-0.14502,0.80298
MPU1,97.64886,-157.34351,9.03817,0.66724,-0.73389,0.75195
MPU2,117.12977,-79.64886,44.71756,0.71753,-0.07251,0.95361
MPU1,87.32825,-65.45038,5.31298,0.75220,-0.48584,0.45850
MPU2,90.03053,-62.96183,2.59542,0.61719,-0.02295,0.68823
MPU1,70.61069,-81.87786,-52.59542,0.75659,-0.50146,0.48267
MPU2,65.00764,-96.88550,-48.74809,0.58569,-0.03101,0.57666
MPU1,41.84733,-32.47328,-70.06107,0.68262,-0.31519,0.21753
MPU2,26.33588,-24.99237,-71.60305,0.67578,-0.01343,0.55176
MPU1,20.68702,19.83206,-69.38931,0.61572,-0.29102,0.23169
MPU2,-9.83206,-32.94656,-96.29008,0.51807,-0.00439,0.41064
MPU1,-23.70992,4.97710,-110.61069,0.62866,-0.24805,0.20239
MPU2,-46.54962,-35.00763,-120.80916,0.51123,0.06616,0.42017
MPU1,-47.16031,51.51145,-97.26717,0.44434,-0.17456,0.23438
MPU2,-83.54198,-0.91603,-118.58015,0.46313,0.10059,0.47119
MPU1,-88.19847,42.22901,-94.44275,0.32690,-0.13184,0.32300
MPU2,-108.00000,-6.62595,-118.79389,0.33618,0.14209,0.52051
MPU1,-90.29008,78.87023,-74.03053,0.18774,-0.17944,0.44507
MPU2,-129.74046,22.29008,-100.38168,0.27563,0.09448,0.52881
MPU1,-119.48092,42.27481,-72.59542,0.07007,-0.16138,0.54443
MPU2,-147.41985,-31.89313,-102.15267,0.08423,0.05273,0.65234
MPU1,-129.28244,73.06870,-55.06870,0.01489,-0.33960,0.62915
MPU2,-148.09160,22.42748,-78.06107,0.08765,-0.09937,0.69507
MPU1,-127.05344,32.85496,-53.80153,-0.24951,-0.30103,0.68945
MPU2,-146.71756,-20.48855,-70.93130,-0.05396,-0.14722,0.91992
MPU1,-101.05344,91.03817,-25.41985,-0.14429,-0.70947,1.07788
MPU2,-117.54198,56.39695,-39.37405,-0.03271,-0.28101,0.93481
MPU1,-92.48855,59.61832,-14.80916,-0.42554,-0.30933,0.81665
MPU2,-116.58015,30.25954,-22.25954,-0.05347,-0.27319,1.01807
MPU1,-76.04580,57.17557,-2.80916,-0.25659,-0.71167,1.16626
MPU2,-92.42748,34.22901,3.05344,-0.09937,-0.37939,1.04712
MPU1,-62.87023,65.00764,27.37405,-0.24341,-0.52612,0.93066
MPU2,-82.15267,25.55725,21.96947,-0.18774,-0.39038,1.12036
MPU1,-40.91603,27.17557,46.12214,-0.43921,-0.67285,1.24219
MPU2,-60.33588,27.29771,52.59542,-0.17285,-0.47046,1.26733
MPU1,-27.67939,4.06107,56.22901,-0.33374,-0.74170,1.27515
MPU2,-31.46565,21.98473,70.07633,-0.08008,-0.57251,1.33374
MPU1,7.83206,25.08397,69.63359,-0.20337,-0.91187,1.34155
MPU2,6.51908,27.66412,66.35114,0.00146,-0.58911,1.29370
MPU1,47.81680,-3.52672,36.51908,-0.00195,-0.99292,1.32764
MPU2,41.05344,25.09924,59.95420,-0.01123,-0.70483,1.34424
MPU1,61.78626,6.65649,52.93130,-0.28882,-0.94482,1.14990
MPU2,61.05344,19.38931,80.42748,-0.12891,-0.74756,1.19629
MPU1,67.31298,-10.30534,70.09161,-0.37598,-0.97803,1.23682
MPU2,84.48855,-16.15267,103.02290,-0.12817,-0.70801,1.23413
MPU1,69.34351,-75.78626,77.70992,-0.31445,-0.92505,1.12817
MPU2,91.43511,-45.17557,118.76336,0.02808,-0.59863,1.26050
MPU1,45.69466,-95.32825,82.12214,-0.18896,-0.73706,0.94727
MPU2,85.31298,-95.66412,124.50381,0.13745,-0.47827,1.10010
MPU1,29.61832,-167.46565,55.80153,0.19873,-0.78394,0.96802
MPU2,93.81680,-102.01527,88.24428,0.41309,-0.28467,1.11987
MPU1,57.87786,-103.16031,35.00763,0.65576,-0.78955,0.87427
MPU2,93.72519,-73.81680,50.91603,0.58887,-0.17847,0.93311
MPU1,65.38931,-95.38931,-21.58779,0.71826,-0.68384,0.73804
MPU2,87.80153,-113.12977,-6.90076,0.58398,-0.16504,0.85156
MPU1,69.34351,-85.57252,-64.99236,0.71753,-0.67505,0.68042
MPU2,75.11450,-72.30534,-45.78626,0.67993,-0.11401,0.68091
MPU1,59.14504,-53.80153,-74.16794,0.59863,-0.35010,0.32275
MPU2,34.41221,-94.88550,-82.79389,0.47363,-0.03882,0.56323
MPU1,-1.20611,-63.95420,-116.41222,0.59839,-0.27734,0.28589
MPU2,-0.16794,-75.55725,-104.10687,0.47925,0.01953,0.36694
MPU1,10.91603,3.46565,-74.88550,0.27441,-0.10376,0.17749
MPU2,-39.67939,-5.58779,-100.74809,0.36230,0.06836,0.33911
MPU1,-55.14504,30.44275,-49.49618,0.16577,0.09253,0.03931
MPU2,-74.03053,-22.79389,-99.09924,0.14062,0.05542,0.24072
MPU1,-26.25954,36.87023,-69.22137,0.20264,-0.23633,0.43433
MPU2,-90.22900,44.29008,-98.09161,0.19214,0.11206,0.30371
MPU1,-66.12214,97.09924,-47.51145,0.08960,0.20410,0.02124
MPU2,-120.13741,8.47328,-77.58778,0.02368,0.09985,0.42041
MPU1,-91.67939,49.78626,-23.34351,-0.22144,-0.21167,0.65552
MPU2,-121.80153,57.41985,-63.22137,-0.06470,-0.02002,0.65039
MPU1,-65.38931,138.90076,-18.56489,-0.18359,-0.05493,0.58960
MPU2,-133.03816,21.95420,-36.47328,-0.28931,-0.11816,0.87036
MPU1,-113.22137,40.59542,-4.77863,-0.59961,-0.28125,0.96460
MPU2,-123.38931,50.07634,5.77099,-0.21631,-0.28418,1.06494
MPU1,-81.35878,80.29008,47.72519,-0.57544,-0.30884,1.06641
MPU2,-109.87786,10.41221,41.58779,-0.35767,-0.39526,1.24756
MPU1,-69.86259,35.87786,62.68702,-0.44214,-0.61987,1.37524
MPU2,-72.67175,57.23664,79.14503,-0.19092,-0.42578,1.28931
MPU1,-40.04580,28.25954,89.63359,-0.63525,-0.59717,1.30469
MPU2,-47.31298,12.94656,109.92367,-0.39966,-0.51636,1.18359
MPU1,-31.80153,-25.06870,113.75572,-0.59180,-0.60107,1.34497
MPU2,-3.26718,-9.12977,115.45038,-0.25903,-0.54736,1.43311
MPU1,39.61832,-11.66412,108.90076,-0.33228,-0.92993,1.64209
MPU2,26.96183,33.61832,167.45038,-0.18579,-0.59814,1.58545
MPU1,6.93130,-86.15267,130.19847,-0.46851,-0.84937,1.56470
MPU2,64.64122,-36.13741,143.37404,-0.10669,-0.50928,1.43896
MPU1,69.37405,-56.67176,114.74809,-0.09912,-0.84595,1.36841
MPU2,83.41985,-22.90076,157.17557,0.04004,-0.47241,1.48877
MPU1,29.20611,-81.41985,94.96183,0.11792,-0.78516,1.10986
MPU2,87.37405,-64.15267,138.21375,0.19849,-0.42383,1.28271
MPU1,48.90076,-118.94656,74.79389,0.18311,-1.00220,1.23999
MPU2,109.66412,-85.67939,108.54962,0.23633,-0.34131,1.14087
MPU1,76.42748,-127.46565,28.03053,0.39233,-0.75464,0.90112
MPU2,99.05344,-94.15267,57.03817,0.32568,-0.20654,1.18091
MPU1,26.10687,-101.48092,-22.19847,0.54980,-0.59717,0.72925
MPU2,85.74046,-99.67939,16.51908,0.33667,-0.08740,0.84082
MPU1,60.76336,-86.70229,-37.69466,0.39966,-0.54810,0.72583
MPU2,69.66412,-106.67175,-16.87023,0.37793,-0.07812,0.82544
MPU1,12.15267,-65.83206,-71.37405,0.56372,-0.36475,0.41772
MPU2,28.03053,-90.71756,-54.80916,0.40869,-0.00488,0.74292
MPU1,-4.47328,-76.22900,-101.86259,0.41846,-0.49365,0.68652
MPU2,11.83206,-90.42748,-75.32825,0.38403,-0.05298,0.60229
MPU1,-1.60305,-32.36641,-84.48855,0.25928,-0.22461,0.35767
MPU2,-15.74046,-53.02290,-81.34351,0.31934,0.03149,0.50562
MPU1,-33.72519,-6.68702,-88.21374,0.32935,-0.14185,0.25366
MPU2,-45.12977,-62.42748,-96.74809,0.25879,0.10083,0.34570
MPU1,-40.64122,16.41221,-85.57252,0.31885,-0.11743,0.31006
MPU2,-66.35114,20.74809,-96.83969,0.39087,0.12573,0.41333
MPU1,-35.83206,85.26717,-46.15267,0.16772,0.01123,0.22925
MPU2,-94.82442,20.85496,-88.51908,0.09302,0.17310,0.38208
MPU1,-85.48092,54.54962,-52.48855,0.01587,-0.00415,0.39502
MPU2,-109.74046,33.60305,-79.77100,0.12329,0.13550,0.53613
MPU1,-67.09924,89.95420,-24.03053,0.01440,-0.10034,0.61401
MPU2,-120.96183,47.32824,-71.78626,0.00049,0.12134,0.70093
MPU1,-87.14503,86.90076,-12.58015,-0.17310,-0.14771,0.75000
MPU2,-113.86259,45.46565,-47.51145,-0.11328,-0.01978,0.81445
MPU1,-43.51145,94.06107,-2.79389,-0.24512,-0.23877,0.99927
MPU2,-103.78626,26.54962,-27.17557,-0.37671,-0.10352,1.09351
MPU1,-71.77100,59.93893,17.20611,-0.53296,-0.27393,1.20044
MPU2,-93.77100,61.93893,16.06107,-0.31152,-0.16309,1.21167
MPU1,-61.60305,54.74809,51.20611,-0.66699,-0.39258,1.28760
MPU2,-69.83206,38.70229,47.51145,-0.40186,-0.22461,1.23389
MPU1,-49.25191,32.39695,76.96183,-0.59351,-0.38062,1.28540
MPU2,-56.68702,36.27481,84.77863,-0.34790,-0.27100,1.31470
MPU1,-49.43512,6.58015,100.15267,-0.51001,-0.52539,1.30835
MPU2,-31.87786,13.16031,107.67939,-0.26660,-0.31885,1.32349
MPU1,-10.64122,-23.58779,110.74809,-0.47656,-0.73828,1.43872
MPU2,-1.90840,2.67176,129.00763,-0.12695,-0.45117,1.47852
MPU1,-2.74809,-49.78626,105.81680,-0.17725,-0.89185,1.39844
MPU2,32.41221,-15.64886,130.83969,0.01660,-0.46973,1.37891
MPU1,31.84733,-76.50381,87.23664,0.03564,-0.98267,1.35303
MPU2,63.17557,-42.77863,121.86259,0.09717,-0.43994,1.41113
MPU1,43.05344,-106.15267,73.78626,-0.07056,-0.95679,1.25537
MPU2,84.04580,-72.80916,107.77100,0.14893,-0.38550,1.31030
MPU1,31.61832,-115.75572,44.76336,0.27100,-0.88794,0.96045
MPU2,101.37405,-69.93893,84.85497,0.40430,-0.34082,1.21558
MPU1,95.41985,-119.67939,12.58015,0.38647,-1.00684,1.10474
MPU2,114.96183,-108.88550,48.32061,0.21631,-0.26514,1.11938
MPU1,79.03817,-130.24428,-24.96183,0.36157,-0.67212,0.76245
MPU2,100.83969,-102.70229,6.88550,0.43262,-0.12573,0.91089
MPU1,70.21374,-97.37405,-52.65649,0.51758,-0.62476,0.61572
MPU2,87.17558,-89.05344,-30.76336,0.41553,-0.05225,0.69995
MPU1,67.75572,-59.43512,-70.41222,0.49292,-0.33105,0.39380
MPU2,52.70229,-66.45802,-60.88550,0.41357,0.04980,0.58765
MPU1,16.61069,-43.38931,-90.36641,0.42041,-0.15771,0.29663
MPU2,10.76336,-76.35114,-84.24428,0.40698,0.10425,0.51733
MPU1,-12.00000,3.08397,-83.55725,0.46533,-0.16528,0.33643
MPU2,-22.70229,-18.82443,-88.77863,0.37134,0.14697,0.43408
MPU1,-41.81680,20.44275,-86.04580,0.27148,-0.02393,0.24292
MPU2,-60.90076,-39.05344,-100.53435,0.20239,0.15479,0.45142
MPU1,-68.01527,30.97710,-81.58778,0.21875,-0.10034,0.39624
MPU2,-86.80916,7.78626,-97.38931,0.22485,0.16284,0.43750
MPU1,-69.66412,81.23664,-74.90076,0.11304,-0.03662,0.28906
MPU2,-121.34351,2.36641,-87.23664,-0.08740,0.14600,0.44385
MPU1,-123.41985,60.67176,-42.94656,-0.29370,0.00659,0.42676
MPU2,-140.16794,25.54198,-63.22137,-0.05127,0.11401,0.65576
MPU1,-113.87786,91.32825,-23.40458,-0.11768,-0.19482,0.68481
MPU2,-145.26718,20.71756,-50.29008,-0.17480,0.05273,0.81787
MPU1,-110.42748,90.50381,3.41985,-0.31616,-0.33032,0.91138
MPU2,-130.21375,77.70992,-23.92366,-0.14429,-0.08594,0.95557
MPU1,-93.61832,91.86259,12.90076,-0.40186,-0.32153,1.01636
MPU2,-114.24428,30.74809,-12.12214,-0.37866,-0.12134,1.18066
MPU1,-58.27481,81.35878,30.15267,-0.45020,-0.61084,1.43188
MPU2,-83.45038,84.71756,28.59542,-0.26245,-0.21143,1.27075
MPU1,-59.45038,49.61832,57.64885,-0.53979,-0.43872,1.22852
MPU2,-66.16794,32.41221,50.39695,-0.37573,-0.20337,1.28418
MPU1,-32.04580,19.28244,70.99236,-0.50708,-0.62207,1.39819
MPU2,-31.55725,37.58779,72.80916,-0.26953,-0.32349,1.35498
MPU1,3.52672,6.64122,76.01527,-0.43481,-0.70801,1.41431
MPU2,-2.68702,28.51908,95.52672,-0.23779,-0.38135,1.44385
MPU1,15.51145,-26.99237,91.31298,-0.41455,-0.84351,1.45190
MPU2,25.84733,4.82443,112.24428,-0.23438,-0.39062,1.36084
MPU1,37.11450,-61.34351,88.88550,-0.31494,-0.84790,1.37183
MPU2,58.21374,-40.91603,115.05344,-0.07324,-0.45459,1.48438
MPU1,70.83969,-96.13741,72.83969,-0.14233,-1.04175,1.44165
MPU2,92.97710,-63.06870,100.07633,0.01807,-0.50879,1.47485
MPU1,89.81680,-106.30534,45.32824,-0.03516,-1.04028,1.22021
MPU2,112.67175,-81.60305,77.34351,0.07568,-0.47632,1.28809
MPU1,79.16031,-111.81680,7.51145,0.14941,-0.90698,0.96753
MPU2,122.35114,-68.53435,45.45038,0.29468,-0.36182,1.06445
MPU1,103.72519,-93.51145,-15.96947,0.23218,-0.80469,0.89282
MPU2,119.84733,-85.37405,21.29771,0.19263,-0.17773,0.92603
MPU1,70.82442,-101.28244,-23.67939,0.16943,-0.32812,0.66431
MPU2,92.10687,-124.35114,4.83969,0.28076,0.02051,0.96704
MPU1,20.27481,-119.19084,-66.16794,0.44604,-0.41553,0.59961
MPU2,59.11450,-119.02290,-30.51908,0.34351,-0.02783,0.56274
MPU1,40.70229,-95.64886,-63.29771,0.25952,-0.23486,0.33398
MPU2,19.74046,-76.06107,-51.80153,0.30640,0.03174,0.37891
MPU1,-9.09924,-27.11450,-68.97710,0.40186,-0.01440,-0.01367
MPU2,-24.91603,-62.35115,-75.98473,0.21899,0.10938,0.26880
MPU1,-49.11450,-4.25954,-85.64886,0.31372,-0.04810,0.13916
MPU2,-62.76336,-36.96183,-85.49619,0.32520,0.13159,0.30737
MPU1,-84.62595,42.00000,-60.54962,0.29175,0.03003,0.09399
MPU2,-101.66412,12.00000,-93.77100,0.21411,0.14258,0.40137
MPU1,-103.69466,74.48855,-71.80153,0.14478,-0.14087,0.34302
MPU2,-126.85497,28.58015,-83.37405,0.07397,0.13306,0.40576
MPU1,-117.37405,83.09924,-43.29771,-0.23022,-0.07080,0.43237
MPU2,-145.95419,8.42748,-64.03053,-0.21704,0.10107,0.68652
MPU1,-124.45802,62.90076,-18.45802,-0.37012,-0.30713,0.82178
MPU2,-135.25191,49.48092,-37.34351,-0.24854,-0.02686,0.87451
MPU1,-103.57252,75.81680,7.12977,-0.54712,-0.30688,1.03101
MPU2,-115.41985,48.03053,-5.84733,-0.38379,-0.04907,1.14355
MPU1,-71.58778,68.64122,43.72519,-0.63477,-0.45581,1.36597
MPU2,-84.93130,62.62595,38.35115,-0.39575,-0.09106,1.28101
MPU1,-44.88550,56.32061,80.65649,-0.56738,-0.43677,1.36206
MPU2,-60.21374,64.07633,64.93130,-0.31006,-0.08789,1.34204
MPU1,-20.18321,27.40458,83.81680,-0.36865,-0.55908,1.45850
MPU2,-35.80153,39.23664,89.63359,-0.27588,-0.12183,1.37085
MPU1,-6.13740,-4.07634,96.54962,-0.34863,-0.61597,1.43286
MPU2,-11.84733,33.61832,102.54962,-0.19556,-0.21875,1.43408
MPU1,15.64886,-14.24428,98.27481,-0.40601,-0.76514,1.40723
MPU2,13.75572,-2.47328,121.77100,-0.17236,-0.43848,1.53931
MPU1,37.45038,-71.54198,94.58015,-0.22119,-0.96924,1.40967
MPU2,41.16031,-27.28244,131.89313,-0.08545,-0.43018,1.26562
MPU1,25.35878,-80.04580,101.58778,-0.15991,-0.86987,1.06152
MPU2,60.71756,-58.61069,119.54198,0.06567,-0.50098,1.32275
MPU1,49.78626,-106.41222,63.72519,0.21753,-1.02271,1.13281
MPU2,79.61832,-69.51145,85.75572,0.27002,-0.45361,1.36597
MPU1,44.53435,-109.23664,36.83969,0.31348,-1.06787,1.03540
MPU2,103.98473,-73.70992,42.16794,0.40918,-0.42236,1.12842
MPU1,107.00764,-87.00764,-26.41221,0.48291,-1.06226,0.99268
MPU2,103.74046,-65.28244,-4.16794,0.43628,-0.27637,1.03809
MPU1,76.87023,-70.03053,-52.48855,0.41187,-0.62012,0.58887
MPU2,74.90076,-100.36641,-33.35878,0.39404,-0.17651,0.84155
MPU1,35.23664,-94.39695,-44.42748,0.24268,-0.41992,0.53027
MPU2,49.26717,-89.09924,-61.66412,0.28125,-0.03882,0.62378
MPU1,24.22901,-51.90840,-105.87786,0.43848,-0.30737,0.37964
MPU2,9.72519,-84.74809,-86.79389,0.32422,0.05054,0.61841
MPU1,-24.88550,-32.50382,-110.77863,0.31445,-0.17993,0.36279
MPU2,-23.63359,-71.93893,-100.48855,0.31299,0.06543,0.51978
MPU1,-44.79389,0.56489,-87.69466,0.24878,-0.15112,0.35962
MPU2,-48.91603,-30.79389,-106.65649,0.17236,0.09326,0.43652
MPU1,-58.70229,40.70229,-107.54198,0.22119,-0.09497,0.26831
MPU2,-83.03817,-20.85496,-112.41222,0.04053,0.13208,0.42236
MPU1,-95.08397,67.22137,-88.33588,-0.09766,-0.07349,0.25781
MPU2,-110.93130,12.01527,-87.34351,0.04004,0.05371,0.42847
MPU1,-100.83969,70.29008,-29.20611,-0.21167,-0.07983,0.49072
MPU2,-125.22137,22.90076,-74.36641,-0.16821,0.08203,0.66162
MPU1,-108.04580,81.93893,-36.42748,-0.25073,-0.26929,0.66626
MPU2,-132.12213,32.64122,-46.25954,-0.17651,-0.01538,0.73535
MPU1,-103.66412,77.70992,10.45802,-0.44849,-0.24072,0.81689
MPU2,-129.95419,52.58015,-20.96183,-0.39697,-0.06934,0.86426
MPU1,-100.38168,45.48092,19.14504,-0.74194,-0.34521,1.00659
MPU2,-117.05344,46.74809,16.03053,-0.34009,-0.17822,1.13110
MPU1,-67.61832,62.73283,64.85497,-0.64526,-0.48291,1.20630
MPU2,-95.02290,32.04580,50.99237,-0.42578,-0.25781,1.23462
MPU1,-36.82443,9.96947,97.67939,-0.59790,-0.68945,1.36841
MPU2,-60.27481,38.68702,101.16031,-0.30713,-0.32788,1.37939
MPU1,14.00000,-29.63359,120.12214,-0.45410,-0.80322,1.61377
MPU2,-13.75572,14.42748,113.17558,-0.36133,-0.33032,1.58765
MPU1,21.63359,-34.53435,119.11450,-0.51270,-0.66724,1.60083
MPU2,25.06870,-13.86260,151.89313,-0.33252,-0.46167,1.62354
MPU1,37.41985,-85.17558,137.40459,-0.52026,-0.97290,1.72437
MPU2,66.96183,-51.57252,180.19847,-0.24512,-0.51147,1.53174
MPU1,47.16031,-137.54199,142.48856,-0.40210,-0.94604,1.31567
MPU2,86.04580,-80.10687,178.15266,-0.01953,-0.51978,1.47241
MPU1,26.94657,-156.56488,110.61069,0.00830,-1.08105,1.04272
MPU2,107.31298,-101.58778,154.00000,0.27368,-0.57275,1.29395
MPU1,88.51908,-150.62596,63.77099,0.52734,-1.33936,1.04883
MPU2,127.55725,-115.45038,86.18320,0.56714,-0.48730,1.18433
MPU1,74.64122,-129.14503,-16.67175,0.88135,-1.05518,0.58057
MPU2,114.48855,-99.60305,20.18321,0.62280,-0.36328,0.98706
MPU1,61.22137,-98.21374,-39.40458,0.52368,-0.78320,0.54297
MPU2,81.83206,-94.24428,-16.22901,0.52197,-0.27515,0.71265
MPU1,39.66412,-94.50381,-89.12977,0.51099,-0.59302,0.37817
MPU2,39.72519,-127.11450,-60.61069,0.42383,-0.16748,0.63281
MPU1,-7.83206,-77.38931,-120.42748,0.49634,-0.48096,0.28345
MPU2,7.40458,-99.34351,-82.03053,0.49609,-0.13232,0.58398
MPU1,-12.73282,-21.34351,-106.97710,0.42847,-0.43164,0.32422
MPU2,-17.89313,-82.97710,-98.33588,0.33423,-0.05273,0.44336
MPU1,-49.86259,-20.16794,-125.37405,0.34253,-0.19727,0.19824
MPU2,-51.28244,-62.36641,-110.10687,0.34253,0.02075,0.37842
MPU1,-69.38931,27.74046,-97.52672,0.24731,-0.13452,0.16602
MPU2,-73.05344,-2.45802,-110.73283,0.31104,0.05371,0.32715
MPU1,-76.53435,67.58778,-92.51908,0.22070,-0.13794,0.22119
MPU2,-98.33588,16.58015,-111.55725,0.17969,0.13892,0.39795
MPU1,-102.18320,85.14503,-59.67939,-0.03906,-0.00317,0.32959
MPU2,-126.79389,25.45038,-95.22137,0.05493,0.15381,0.45703
MPU1,-110.35114,93.83206,-42.19847,-0.04614,-0.14893,0.56030
MPU2,-136.22900,52.93130,-83.16031,-0.06396,0.14307,0.63159
MPU1,-110.99236,80.90076,-21.83206,-0.44458,-0.13208,0.74878
MPU2,-136.87022,72.47328,-57.25191,-0.20752,0.06812,0.90210
MPU1,-113.16031,120.33588,2.21374,-0.39136,-0.29468,0.81470
MPU2,-126.68702,103.06870,-42.24427,-0.26978,0.04150,0.89893
MPU1,-110.59542,137.51144,35.63359,-0.64136,-0.27734,1.02954
MPU2,-119.81680,66.35114,0.82443,-0.58911,-0.07593,1.04395
MPU1,-95.40458,68.27481,56.53435,-0.80713,-0.40454,1.15283
MPU2,-111.92367,52.29008,44.97710,-0.44043,-0.13574,1.19702
MPU1,-77.22137,2.76336,76.15267,-0.75513,-0.58887,1.36328
MPU2,-94.68702,-0.22901,85.63359,-0.44604,-0.27075,1.31787
MPU1,-50.00000,-24.48855,88.33588,-0.44409,-0.87988,1.36743
MPU2,-63.78626,-11.22137,116.33588,-0.28101,-0.40649,1.40161
MPU1,-24.16794,-52.83969,103.40458,-0.49121,-1.01440,1.36523
MPU2,-10.10687,-19.37405,128.76335,-0.19434,-0.59546,1.59302
MPU1,64.56489,-83.80153,83.51145,-0.24170,-1.26758,1.60059
MPU2,54.04580,-27.78626,132.18321,-0.18774,-0.58984,1.40332
MPU1,94.53435,-54.77863,60.18320,-0.06738,-1.04639,1.21265
MPU2,87.40458,-17.23664,129.51144,-0.03638,-0.58862,1.44897
MPU1,91.72519,-54.99237,96.12214,-0.30493,-1.04126,1.30273
MPU2,99.74046,-49.98473,147.31297,-0.10840,-0.59082,1.34326
MPU1,59.90840,-125.54198,94.32061,-0.04443,-0.95386,0.99805
MPU2,107.43511,-88.99236,124.94656,0.23633,-0.49194,1.25732
MPU1,67.95420,-158.19847,38.71756,0.53491,-1.12378,1.00122
MPU2,123.32825,-99.40458,72.15267,0.47266,-0.34912,1.09155
MPU1,102.53435,-109.87786,1.05344,0.61035,-0.88257,0.76831
MPU2,114.77863,-103.77100,20.74809,0.43164,-0.23169,0.99756
MPU1,87.46565,-92.19847,-50.33588,0.62158,-0.67163,0.64575
MPU2,93.84733,-89.16031,-22.59542,0.47754,-0.12134,0.83838
MPU1,58.59542,-72.64122,-84.09161,0.50391,-0.48901,0.46191
MPU2,64.04580,-114.70229,-54.67176,0.40186,-0.07178,0.66748
MPU1,33.69466,-67.02290,-106.03053,0.52026,-0.38550,0.43579
MPU2,33.22137,-89.35878,-80.64122,0.41553,0.09277,0.48706
MPU1,5.52672,-37.00763,-115.02290,0.40503,-0.18677,0.29321
MPU2,-7.03817,-80.25954,-95.95420,0.35425,0.09229,0.46460
MPU1,-33.48092,-8.59542,-106.73283,0.30371,-0.05591,0.21777
MPU2,-47.49618,-59.93893,-100.97710,0.26050,0.14404,0.35083
MPU1,-66.30534,14.22901,-109.02290,0.25562,0.01855,0.15405
MPU2,-93.41985,-50.38168,-100.22900,0.17700,0.20312,0.25952
MPU1,-131.11450,24.96183,-86.01527,0.06909,0.15625,0.02954
MPU2,-142.94656,1.63359,-76.47328,0.20044,0.14722,0.37988
MPU1,-149.20610,52.39695,-31.25191,-0.08838,-0.13770,0.36475
MPU2,-158.58015,5.37405,-65.74046,-0.02246,0.09351,0.50000
MPU1,-168.67175,42.74809,-33.89313,-0.11230,-0.25977,0.53369
MPU2,-159.43512,11.84733,-41.86259,-0.06519,-0.02734,0.74731
MPU1,-131.17557,53.22137,13.32824,-0.35107,-0.50757,0.95361
MPU2,-137.52672,44.06107,-14.07634,-0.13696,-0.05640,0.97974
MPU1,-106.54962,50.00000,31.31298,-0.31665,-0.48901,1.08667
MPU2,-117.22137,40.00000,8.80916,-0.21582,-0.07031,1.12915
MPU1,-79.26717,45.63359,57.22137,-0.41748,-0.65112,1.29761
MPU2,-79.87786,66.65649,39.12977,-0.24658,-0.17334,1.30493
MPU1,-56.06107,36.03053,78.94656,-0.49829,-0.59351,1.26514
MPU2,-55.51145,50.30534,65.16031,-0.23413,-0.14453,1.38306
MPU1,-32.19847,41.25191,98.71756,-0.27954,-0.75952,1.34985
MPU2,-32.13741,62.04580,91.49619,-0.16968,-0.15088,1.31909
MPU1,-42.50382,-5.40458,104.04580,-0.39819,-0.72607,1.17578
MPU2,-12.85496,8.47328,110.15267,-0.19189,-0.30762,1.45435
MPU1,7.54198,-55.02290,95.81680,-0.19019,-1.21387,1.52051
MPU2,37.08397,-5.45038,124.82442,-0.02075,-0.48950,1.55273
MPU1,47.75573,-82.36641,88.97710,-0.09717,-1.31299,1.35815
MPU2,73.14503,-32.51908,128.73282,0.05420,-0.54956,1.51074
MPU1,73.45038,-104.90076,79.08397,-0.08960,-1.34326,1.17139
MPU2,106.00000,-57.49618,115.84733,0.17310,-0.60425,1.40674
MPU1,101.93893,-118.01527,45.23664,0.21509,-1.32031,0.98755
MPU2,128.01527,-57.32824,86.32061,0.37109,-0.47021,1.26709
MPU1,122.16794,-105.51145,19.28244,0.39966,-1.12646,0.80713
MPU2,128.74809,-87.06870,41.25191,0.37085,-0.32300,1.03027
MPU1,117.95420,-90.53435,-29.43511,0.54468,-0.89233,0.60815
MPU2,113.41985,-69.31298,0.38168,0.51050,-0.20532,0.91089
MPU1,101.58778,-60.47328,-54.62595,0.54834,-0.65649,0.48926
MPU2,86.88550,-88.77863,-38.29008,0.43042,-0.08789,0.68750
MPU1,63.61832,-58.59542,-95.61832,0.54761,-0.41162,0.32178
MPU2,51.03817,-88.74809,-74.67175,0.45117,0.00415,0.55737
MPU1,31.81679,-18.83969,-110.47328,0.48218,-0.25781,0.24170
MPU2,10.71756,-61.67939,-93.55725,0.40137,0.06323,0.44629
MPU1,-4.65649,-2.68702,-113.08397,0.31763,-0.12793,0.25586
MPU2,-29.84733,-57.34351,-104.21374,0.28882,0.11475,0.42700
MPU1,-51.54198,25.03817,-114.21374,0.34766,-0.10498,0.24463
MPU2,-61.02290,-24.51908,-112.12214,0.27734,0.14551,0.43750
MPU1,-54.71756,56.90076,-87.35878,0.11133,-0.09448,0.39014
MPU2,-89.14503,5.52672,-108.64122,0.12573,0.17651,0.43433
MPU1,-105.05344,62.21374,-78.24428,-0.02979,0.00513,0.28345
MPU2,-114.13741,9.93893,-108.64122,0.04688,0.18311,0.62646
MPU1,-105.49619,74.68702,-63.83206,-0.14209,-0.27637,0.74341
MPU2,-125.72519,20.24427,-81.06870,-0.17969,0.14966,0.61914
MPU1,-119.60305,57.57252,-34.82443,-0.47021,-0.10034,0.50757
MPU2,-149.45038,20.29008,-51.55725,-0.28198,0.05908,0.74829
MPU1,-147.09924,51.93893,0.04580,-0.50732,-0.27905,0.73267
MPU2,-150.39694,17.98473,-17.57252,-0.28418,-0.02637,0.86475
MPU1,-122.68702,32.36641,29.48092,-0.50488,-0.54053,0.98218
MPU2,-135.95419,50.48855,11.78626,-0.34521,-0.12085,1.08936
MPU1,-102.04580,48.82443,67.38931,-0.62622,-0.59570,1.07959
MPU2,-108.99236,29.80153,44.27481,-0.49243,-0.26367,1.24170
MPU1,-54.50382,9.66412,89.81680,-0.74146,-0.81348,1.38379
MPU2,-68.25954,31.72519,81.00764,-0.38892,-0.32129,1.40747
MPU1,-32.03053,-20.82443,87.84733,-0.47437,-0.89819,1.37720
MPU2,-24.79389,10.29008,102.01527,-0.28906,-0.41406,1.51343
MPU1,15.40458,-33.86259,103.86259,-0.36621,-1.08398,1.50488
MPU2,21.28244,19.87786,116.83969,-0.22974,-0.45215,1.45679
MPU1,19.67939,1.45038,100.45802,-0.31274,-1.06689,1.13770
MPU2,44.36641,21.20611,134.39694,-0.19995,-0.49023,1.53149
MPU1,60.42748,-62.35115,108.70229,-0.78223,-1.09985,1.57544
MPU2,83.67939,-49.16031,145.98473,-0.22852,-0.53467,1.40259
MPU1,81.93893,-119.75572,88.70229,-0.24951,-1.14380,1.12646
MPU2,103.55725,-60.10687,140.38168,0.09937,-0.47168,1.34058
MPU1,84.56489,-147.20610,66.97710,0.10913,-1.08325,0.93774
MPU2,110.12214,-90.44275,101.49619,0.27148,-0.37427,1.17383
MPU1,102.58015,-128.82443,25.87786,0.42920,-1.02905,0.84424
MPU2,110.44275,-91.90839,53.55725,0.42334,-0.28540,1.03467
MPU1,100.21374,-107.74046,-12.33588,0.49609,-0.77100,0.61768
MPU2,90.71756,-80.44275,9.06870,0.44604,-0.18457,0.89185
MPU1,62.96183,-72.03053,-49.81680,0.57202,-0.55884,0.42432
MPU2,60.90076,-102.65649,-34.24427,0.32324,-0.10449,0.68506
MPU1,41.74046,-92.06107,-97.41985,0.39355,-0.45337,0.51880
MPU2,32.16794,-98.79389,-60.79389,0.44849,-0.03052,0.69360
MPU1,3.22137,-51.38931,-87.38931,0.42212,-0.32104,0.35962
MPU2,5.64885,-83.84733,-80.44275,0.31787,0.03857,0.57373
MPU1,3.49618,-26.29008,-105.89313,0.33032,-0.29761,0.49268
MPU2,-15.14504,-50.80916,-88.65649,0.37305,0.06421,0.61230
MPU1,-32.85496,25.51145,-87.87786,0.27930,-0.15601,0.32056
MPU2,-37.11450,-29.28244,-99.95420,0.21655,0.06445,0.51514
MPU1,-42.85496,28.15267,-95.92367,0.16968,-0.21021,0.46216
MPU2,-55.60305,-9.40458,-101.29771,0.20361,0.09937,0.47144
MPU1,-53.11450,53.80153,-68.91603,0.04761,-0.05396,0.36865
MPU2,-78.35114,26.39695,-89.66412,0.03687,0.18018,0.46826
MPU1,-82.97710,68.64122,-39.06870,-0.19067,0.02417,0.38281
MPU2,-107.54198,22.13741,-69.26717,-0.11792,0.17480,0.56421
MPU1,-109.32825,58.58015,-19.40458,-0.26392,-0.06958,0.57593
MPU2,-125.58778,24.38168,-53.67939,-0.16382,0.15234,0.69824
MPU1,-122.76336,56.48855,-5.37405,-0.32812,-0.16187,0.71558
MPU2,-142.03053,24.32061,-24.33588,-0.25220,0.04297,0.80518
MPU1,-123.96947,62.12214,34.44275,-0.51074,-0.26953,0.91895
MPU2,-140.94656,37.77099,11.16031,-0.38477,-0.01709,1.04395
MPU1,-125.89313,37.29771,58.13741,-0.66431,-0.48096,1.19043
MPU2,-115.86259,49.26717,46.03053,-0.39087,-0.10840,1.22070
MPU1,-78.70229,38.03053,91.54198,-0.69019,-0.63477,1.35815
MPU2,-81.64886,33.43512,71.22137,-0.38550,-0.12622,1.36328
MPU1,-49.87786,8.67176,92.58015,-0.39331,-0.78589,1.39746
MPU2,-44.18320,59.93893,91.34351,-0.21973,-0.22607,1.36255
MPU1,-26.16794,-8.80916,105.25191,-0.48682,-0.78882,1.28174
MPU2,-19.75573,11.45038,99.46565,-0.29175,-0.31689,1.37402
MPU1,4.54962,-31.96947,97.80153,-0.38525,-1.04053,1.34473
MPU2,8.38168,8.50382,113.74046,-0.14551,-0.44995,1.45972
MPU1,16.09160,-66.65649,90.24428,-0.39746,-1.03174,1.17627
MPU2,28.80916,-65.00764,116.71756,-0.19653,-0.56470,1.41968
MPU1,27.34351,-112.33588,64.85497,-0.12329,-1.27734,1.18921
MPU2,63.89313,-60.68702,105.61832,0.05786,-0.58374,1.43384
MPU1,61.20611,-120.87023,45.95420,-0.12158,-1.25000,1.01465
MPU2,95.81680,-85.38931,84.25954,0.08936,-0.62354,1.27344
MPU1,87.45038,-124.13741,9.57252,0.06836,-1.22095,0.91382
MPU2,112.87023,-100.03053,49.69466,0.20947,-0.50439,1.06738
MPU1,87.89313,-112.94656,-14.68702,0.16357,-0.95850,0.64404
MPU2,109.38931,-76.87023,20.94657,0.35767,-0.37866,1.02905
MPU1,84.50381,-86.04580,-38.03053,0.35938,-0.83521,0.66553
MPU2,101.43511,-94.62595,-12.15267,0.31201,-0.21509,0.81323
MPU1,85.72519,-76.76336,-63.51145,0.32007,-0.59277,0.55371
MPU2,77.84733,-80.07633,-35.98473,0.39014,-0.10596,0.77417
MPU1,56.45802,-65.55725,-84.59542,0.34644,-0.45093,0.49512
MPU2,57.75573,-100.18320,-65.03817,0.31274,-0.00708,0.60181
MPU1,44.35115,-55.12977,-111.49619,0.40747,-0.36084,0.44897
MPU2,33.70992,-65.60305,-87.46565,0.42188,0.07739,0.53589
MPU1,25.98473,0.15267,-101.28244,0.34863,-0.12207,0.29224
MPU2,0.22901,-47.02290,-101.38931,0.30640,0.15698,0.40747
MPU1,-20.51908,9.64886,-115.16031,0.33252,-0.03076,0.23779
MPU2,-33.96947,-26.61069,-112.45802,0.29907,0.20093,0.34448
MPU1,-28.65649,42.01527,-94.41222,0.14453,0.00415,0.28809
MPU2,-65.93893,-23.37405,-110.80916,0.09058,0.18408,0.35864
MPU1,-79.58778,61.81680,-68.03053,0.03369,0.13623,0.22900
MPU2,-96.44275,31.17557,-100.41222,0.01685,0.26270,0.44604
MPU1,-91.35878,63.38931,-55.96947,-0.26392,0.07471,0.52490
MPU2,-126.39695,18.61069,-75.77100,-0.13696,0.22119,0.56665
MPU1,-114.90076,94.68702,-28.01527,-0.22363,-0.05542,0.51733
MPU2,-143.86259,48.13741,-57.90840,-0.16748,0.15918,0.71558
MPU1,-121.98473,85.09924,-6.18321,-0.46362,-0.22583,0.86548
MPU2,-142.64122,53.22137,-29.58779,-0.32715,0.02637,0.98193
MPU1,-128.83969,68.91603,14.87023,-0.59570,-0.36890,1.07568
MPU2,-129.40459,42.12214,-1.77099,-0.39282,0.00098,1.08521
MPU1,-99.19084,56.71756,46.45802,-0.69214,-0.44385,1.17798
MPU2,-111.40458,44.01527,40.27481,-0.42114,-0.06445,1.28540
MPU1,-95.86259,40.51908,85.77100,-0.51953,-0.58057,1.40039
MPU2,-76.25954,74.59542,71.87786,-0.32983,-0.10767,1.38599
MPU1,-41.92366,8.22901,103.28244,-0.78687,-0.69629,1.48560
MPU2,-43.74046,6.25954,100.12214,-0.50854,-0.25781,1.49634
MPU1,-22.03053,-46.53435,102.45802,-0.54736,-0.86084,1.46704
MPU2,-16.67175,-17.90840,126.83969,-0.26392,-0.31714,1.43506
MPU1,-10.12214,-82.33588,101.69466,-0.37671,-0.95288,1.25928
MPU2,9.26718,-42.67176,137.48091,-0.21558,-0.42871,1.35156
MPU1,-2.65649,-127.84733,92.97710,-0.45093,-1.01123,1.09375
MPU2,42.10687,-80.06107,129.52672,-0.06982,-0.54492,1.34497
MPU1,43.72519,-126.58015,69.28244,-0.06372,-1.21606,1.10059
MPU2,78.38168,-80.30534,107.08397,0.12573,-0.56055,1.30078
MPU1,62.54962,-130.64122,27.12977,0.18262,-1.21411,0.95361
MPU2,107.64886,-79.57252,61.81680,0.34937,-0.50659,1.24487
MPU1,87.14503,-99.84733,-9.46565,0.37305,-1.10669,0.85327
MPU2,115.34351,-79.96947,27.26718,0.35620,-0.38843,1.06982
MPU1,87.38931,-100.65649,-40.39695,0.29199,-0.87573,0.68335
MPU2,104.91603,-93.77100,-6.80916,0.38525,-0.27222,0.92407
MPU1,78.06107,-75.55725,-74.38168,0.50977,-0.74048,0.52734
MPU2,89.41985,-78.18320,-39.03817,0.42993,-0.14697,0.78540
MPU1,71.46565,-41.64885,-79.38931,0.36011,-0.50708,0.46924
MPU2,63.58779,-73.86259,-58.74809,0.36011,-0.05103,0.64111
MPU1,41.90840,-41.31298,-99.78626,0.39429,-0.32837,0.42163
MPU2,37.87786,-82.41222,-85.69466,0.30664,0.06519,0.54810
MPU1,19.29771,-16.70229,-115.89313,0.40991,-0.23755,0.35229
MPU2,9.46565,-37.43512,-97.43511,0.39380,0.13159,0.49731
MPU1,2.25954,29.20611,-96.04580,0.24609,-0.08350,0.30835
MPU2,-17.78626,-27.19084,-106.24428,0.19531,0.17163,0.40186
MPU1,-27.00763,39.60305,-107.34351,0.23047,-0.05054,0.29443
MPU2,-49.49618,-0.12214,-111.14503,0.21973,0.22290,0.40063
MPU1,-47.11450,67.66412,-85.38931,0.07593,0.07104,0.29810
MPU2,-92.96183,9.69466,-95.78626,-0.00049,0.30908,0.32446
MPU1,-91.81680,65.64886,-54.01527,-0.23340,0.22168,0.22437
MPU2,-143.80153,14.51908,-73.93893,-0.11011,0.23413,0.39844
MPU1,-155.12978,68.74809,-34.01527,-0.22412,0.01270,0.34424
MPU2,-164.82443,25.96947,-60.00000,-0.19116,0.11768,0.65845
MPU1,-143.22137,77.80153,-1.84733,-0.54248,-0.29077,0.77686
MPU2,-166.59541,39.34351,-26.30534,-0.37134,-0.00928,0.89038
MPU1,-195.09924,91.05344,25.00763,-0.63818,-0.37964,0.70190
MPU2,-159.86259,38.50382,4.53435,-0.40503,-0.14648,0.96875
MPU1,-112.42748,69.52672,52.87023,-0.64648,-0.77612,1.31250
MPU2,-121.80153,49.46565,34.45802,-0.43750,-0.23560,1.30957
MPU1,-88.83969,29.66412,68.91603,-0.80103,-0.80859,1.33594
MPU2,-77.26717,36.06107,66.87023,-0.37158,-0.29565,1.43628
MPU1,-19.67939,4.56489,86.45802,-0.62964,-0.95532,1.49658
MPU2,-37.35878,24.70229,98.90076,-0.38721,-0.38672,1.47705
MPU1,-6.88550,-38.51908,95.74046,-0.60571,-0.90210,1.31445
MPU2,-7.19084,-6.39695,112.39695,-0.26440,-0.42041,1.40039
MPU1,16.32061,-57.38931,89.40458,-0.45532,-0.99097,1.23682
MPU2,19.08397,-52.58015,133.19084,-0.29858,-0.55957,1.35767
MPU1,-8.53435,-143.77100,74.53435,-0.62671,-1.09253,1.10645
MPU2,48.56488,-106.65649,138.07634,-0.10620,-0.63818,1.30615
MPU1,43.49618,-149.92366,78.51908,-0.17505,-1.18457,0.99390
MPU2,81.87786,-67.05344,134.62596,0.18628,-0.56982,1.27271
MPU1,55.64885,-138.21375,71.23664,0.08032,-1.11890,0.87842
MPU2,104.07633,-93.11450,103.28244,0.20605,-0.49561,1.20996
MPU1,85.16031,-136.30534,26.03053,0.25366,-1.17798,0.97510
MPU2,121.69466,-94.62595,64.44275,0.34424,-0.37720,1.12744
MPU1,100.30534,-135.06870,-13.46565,0.34717,-0.96509,0.77637
MPU2,120.44275,-117.37405,21.93893,0.38892,-0.32227,1.06738
MPU1,90.42748,-125.11450,-65.19084,0.53418,-0.93408,0.70752
MPU2,118.58015,-110.96183,-16.04580,0.53052,-0.20776,0.88965
MPU1,113.28244,-82.15267,-72.16794,0.46704,-0.64331,0.56885
MPU2,95.26717,-100.71756,-43.16031,0.46143,-0.03003,0.71460
MPU1,68.41222,-84.73283,-103.45038,0.48267,-0.35425,0.40356
MPU2,62.13741,-111.48092,-74.97710,0.45288,0.09009,0.56055
MPU1,40.53435,-37.34351,-119.23664,0.51831,-0.19458,0.32446
MPU2,23.87786,-78.29008,-89.41985,0.47974,0.15186,0.42554
MPU1,3.25191,-17.78626,-115.26717,0.40283,-0.04102,0.24292
MPU2,-16.96183,-69.40458,-100.39695,0.39111,0.19409,0.36523
MPU1,-39.40458,9.05344,-104.21374,0.38037,0.02319,0.19946
MPU2,-48.25954,-37.22137,-106.76336,0.31519,0.23267,0.30396
MPU1,-50.03053,35.16031,-97.89313,0.23364,0.01440,0.27100
MPU2,-82.09161,3.58779,-103.69466,0.28760,0.22974,0.30835
MPU1,-84.80916,77.45038,-75.08397,0.13306,0.08374,0.18286
MPU2,-117.78626,16.35114,-95.11450,0.09570,0.27344,0.33862
MPU1,-116.65649,83.52672,-50.30534,-0.09399,0.08252,0.35986
MPU2,-149.03816,38.15267,-78.59542,0.05371,0.25146,0.41455
MPU1,-135.90840,90.38168,-28.93130,-0.14551,-0.06763,0.40308
MPU2,-167.09924,59.84733,-65.67939,-0.11475,0.17554,0.62378
MPU1,-154.88550,107.57252,-1.06870,-0.45532,-0.21533,0.65039
MPU2,-176.07634,64.64122,-34.36641,-0.29370,0.08545,0.75244
MPU1,-157.64885,95.52672,27.96947,-0.54810,-0.37158,0.85425
MPU2,-161.34351,64.32061,-12.83969,-0.36279,0.01953,1.09497
MPU1,-123.58778,70.70229,25.05343,-0.67212,-0.63208,1.25903
MPU2,-136.03053,44.65649,22.82443,-0.41064,-0.16187,1.25024
MPU1,-101.17558,54.41221,62.16794,-0.66284,-0.66626,1.20801
MPU2,-112.44275,41.78626,57.60305,-0.42725,-0.20728,1.29736
MPU1,-66.41222,11.25191,85.45038,-0.72046,-0.76221,1.27881
MPU2,-88.77863,13.87786,84.94656,-0.34033,-0.33179,1.40039
MPU1,-62.82443,-22.25954,85.64886,-0.45312,-1.00903,1.30273
MPU2,-54.80916,8.39695,110.10687,-0.25659,-0.49072,1.33691
MPU1,-39.05344,-51.89313,101.57252,-0.52686,-0.95972,1.11328
MPU2,-22.50382,-39.48092,110.39695,-0.16431,-0.56787,1.37134
MPU1,-9.86260,-76.06107,75.31298,-0.18335,-1.18726,1.15063
MPU2,6.12214,-42.58015,114.01527,-0.07300,-0.69214,1.32373
MPU1,15.84733,-93.09924,71.29771,-0.15674,-1.32471,1.09595
MPU2,60.58015,-21.09924,98.24428,0.21021,-0.72656,1.44434
MPU1,66.42748,-55.38931,67.80153,0.14087,-1.37915,1.19434
MPU2,101.34351,-36.19847,79.74046,0.05371,-0.65063,1.34766
MPU1,106.83969,-100.22900,20.97710,-0.02295,-1.30029,1.08130
MPU2,121.38931,-77.81680,57.84733,0.08374,-0.56274,1.20239
MPU1,99.28244,-107.83206,4.54962,-0.00952,-0.99194,0.73193
MPU2,120.87023,-92.33588,38.04580,0.16064,-0.43750,1.10156
MPU1,111.83206,-114.06107,-28.35114,0.17310,-0.99268,0.86768
MPU2,121.34351,-99.87786,8.62595,0.22998,-0.30322,1.00317
MPU1,99.23664,-90.70229,-37.25191,0.13379,-0.68091,0.62744
MPU2,101.45038,-101.49619,-6.99237,0.24707,-0.19312,0.89233
MPU1,81.70992,-118.13741,-78.41222,0.31641,-0.65210,0.66797
MPU2,82.62595,-117.45038,-43.98473,0.37378,-0.07788,0.73047
MPU1,64.01527,-32.48855,-67.96947,0.42383,-0.33374,0.34277
MPU2,52.96183,-65.12977,-65.87786,0.39404,-0.00391,0.61768
MPU1,35.45038,-49.22137,-126.76336,0.48438,-0.39014,0.44800
MPU2,23.96947,-83.17558,-102.21374,0.34009,0.06299,0.46802
MPU1,22.38168,36.77863,-101.09924,0.35986,-0.13696,0.14697
MPU2,-14.65649,48.80916,-115.46565,0.47583,0.04077,0.46704
MPU1,-6.99237,57.17557,-137.41985,0.34351,-0.26831,0.19873
MPU2,-47.48092,-70.54962,-143.20610,-0.00464,0.10645,0.06714
MPU1,-42.71756,52.71756,-117.25191,-0.12915,0.10278,-0.11206
MPU2,-105.72519,45.54198,-112.68702,0.08228,0.05957,0.14380
MPU1,-101.43511,102.47328,-43.09924,-0.48486,0.22925,-0.14233
MPU2,-154.18321,22.90076,-93.32825,-0.56104,0.10034,0.31055
MPU1,-173.06870,69.23664,-46.33588,-0.73218,-0.00024,0.28784
MPU2,-178.27481,35.32824,-33.83206,-0.48242,0.09009,0.52979
MPU1,-132.30534,75.84733,29.02290,-0.94141,-0.15918,0.81152
MPU2,-176.93130,52.03053,8.01527,-0.69092,0.13232,0.97095
MPU1,-149.16031,48.01527,69.64886,-1.08252,-0.20654,1.13843
MPU2,-157.61832,39.37405,61.66412,-0.60059,0.01025,1.28198
MPU1,-88.04580,22.82443,94.88550,-0.64111,-0.58130,1.56567
MPU2,-119.74046,53.63359,87.89313,-0.37207,-0.07275,1.63135
MPU1,-64.59542,18.41221,110.93130,-0.56763,-0.78833,1.78540
MPU2,-51.75573,29.96947,114.48855,-0.31592,-0.24878,1.61719
MPU1,16.71756,-23.81679,105.14503,-0.40991,-0.84302,1.78247
MPU2,-15.19084,-6.03053,127.52672,-0.22119,-0.40015,1.75024
MPU1,-9.49618,-60.71756,112.87023,-0.42432,-0.86011,1.52100
MPU2,15.38931,-19.43511,153.51144,-0.29395,-0.60547,1.61841
MPU1,-12.56489,-126.32061,117.38931,-0.69312,-1.10181,1.50488
MPU2,53.06870,-83.20611,158.56488,-0.19922,-0.68872,1.46704
MPU1,20.38168,-139.61832,110.27481,-0.21191,-1.21509,1.20776
MPU2,85.84733,-87.81680,144.47328,0.00146,-0.66162,1.47754
MPU1,60.04580,-181.89313,65.28244,-0.02319,-1.37305,1.26562
MPU2,116.94656,-131.49619,101.22137,0.19116,-0.64966,1.37769
MPU1,75.61832,-171.66412,13.87786,0.33130,-1.28271,0.97192
MPU2,124.83969,-123.12977,61.11450,0.37354,-0.54761,1.24683
MPU1,100.24428,-122.01527,-3.87786,0.29688,-1.07788,0.82178
MPU2,118.36641,-145.66412,23.92366,0.27124,-0.41431,0.98389
MPU1,85.43511,-163.05344,-73.09924,0.41479,-0.85669,0.61157
MPU2,96.44275,-142.06107,-22.77863,0.46655,-0.23071,0.84375
MPU1,66.53435,-108.68702,-90.94656,0.44287,-0.53589,0.39893
MPU2,65.17558,-159.64885,-59.67939,0.40918,-0.11084,0.55591
MPU1,26.87023,-105.87786,-115.64886,0.44385,-0.30493,0.21387
MPU2,25.06870,-109.69466,-82.47328,0.45752,-0.03003,0.42969
MPU1,-6.54962,-21.55725,-118.27481,0.54565,-0.20508,0.06787
MPU2,-9.31298,-93.12977,-104.62595,0.37378,0.03809,0.23242
MPU1,-35.29771,-36.70229,-143.09924,0.36499,-0.12817,0.14990
MPU2,-39.48092,-80.64122,-116.36641,0.39551,0.08447,0.20386
MPU1,-57.86259,30.96183,-108.79389,0.34229,0.00684,0.01880
MPU2,-66.87023,-8.97710,-119.83206,0.35107,0.12524,0.22900
MPU1,-66.88550,42.99237,-109.20611,0.23218,-0.06763,0.27759
MPU2,-80.06107,5.43511,-123.31298,0.29858,0.16187,0.27734
MPU1,-63.22137,99.16031,-77.40458,0.11035,0.02588,0.24463
MPU2,-97.93893,63.45038,-116.07633,0.10669,0.25977,0.33618
MPU1,-87.78626,104.54962,-72.91603,-0.17847,0.12573,0.30688
MPU2,-130.24428,40.90076,-103.34351,-0.11938,0.32251,0.41309
MPU1,-130.15266,117.86259,-48.41221,-0.24146,0.08301,0.36426
MPU2,-151.87787,67.32825,-91.12977,-0.20728,0.22876,0.56128
MPU1,-125.83206,106.03053,-24.87023,-0.55420,-0.04492,0.70215
MPU2,-173.54199,99.55725,-56.50382,-0.33081,0.13306,0.88647
MPU1,-152.18321,113.69466,12.36641,-0.81372,-0.18677,0.88696
MPU2,-180.76335,66.22900,-27.28244,-0.60352,0.08667,0.86060
MPU1,-149.95419,128.79390,57.83206,-0.87720,-0.25757,0.96045
MPU2,-177.55725,90.62595,24.62595,-0.68652,-0.11914,1.16675
MPU1,-151.37404,61.02290,76.38168,-1.09326,-0.61426,1.29297
MPU2,-146.77863,74.74809,58.27481,-0.60303,-0.22461,1.39209
MPU1,-105.00764,28.64122,97.60305,-1.14990,-0.76001,1.58325
MPU2,-110.32061,-2.64122,101.25191,-0.73755,-0.39062,1.51294
MPU1,-74.41222,-23.41985,101.31298,-0.59277,-1.03784,1.55005
MPU2,-57.95420,-22.32061,126.67175,-0.54663,-0.44287,1.41724
MPU1,-23.98473,-106.38168,87.03817,-1.03223,-1.03027,1.43604
MPU2,-3.29771,-101.57252,155.22137,-0.48730,-0.69678,1.56299
MPU1,46.45802,-131.86259,100.42748,-0.55957,-1.18701,1.30859
MPU2,31.96947,-88.24428,179.51144,-0.06714,-0.71387,1.41040
MPU1,36.99237,-176.54962,155.09924,-0.50439,-1.19482,1.08350
MPU2,51.22137,-104.74809,180.64122,-0.14819,-0.69629,1.27124
MPU1,33.57252,-148.64122,145.83206,0.07715,-1.10547,0.78296
MPU2,64.10687,-68.22900,146.01527,0.18335,-0.54053,1.30566
MPU1,32.10687,-138.85497,97.43511,0.05542,-1.11426,1.04248
MPU2,104.58015,-121.26717,107.20611,0.11597,-0.56396,1.25537
MPU1,74.19847,-156.73282,34.67176,0.22485,-1.04736,1.07495
MPU2,105.02290,-97.52672,78.00000,0.35010,-0.34766,1.31519
MPU1,46.00000,-138.27481,14.01527,0.14893,-0.85474,0.86914
MPU2,96.80916,-162.76335,37.25191,0.12500,-0.22778,0.93823
MPU1,54.77863,-157.23665,-51.32824,0.30811,-0.68970,0.70312
MPU2,70.24428,-117.64886,5.26718,0.54468,-0.15967,0.99023
MPU1,2.36641,-122.61069,-81.23664,0.61304,-0.59424,0.45117
MPU2,41.86259,-186.68703,-46.91603,0.40283,-0.13037,0.55225
MPU1,15.31298,-109.26717,-106.59542,0.53271,-0.49268,0.42065
MPU2,12.22901,-139.95419,-79.11450,0.62573,-0.11255,0.51538
MPU1,-28.58015,-120.53435,-147.16031,0.50977,-0.36963,0.25488
MPU2,-18.71756,-146.71756,-106.56489,0.61475,-0.07300,0.43384
MPU1,-38.70229,-32.61069,-131.75572,0.66748,-0.36011,0.21191
MPU2,-33.45038,-74.12214,-119.95420,0.65552,-0.07593,0.36816
MPU1,-20.58015,1.11450,-118.36641,0.43286,-0.34521,0.31665
MPU2,-46.36641,-49.87786,-123.37405,0.47485,-0.01855,0.32739
MPU1,-65.77100,18.59542,-103.96947,0.33765,-0.04346,0.07056
MPU2,-68.53435,-28.01527,-126.47328,0.36450,0.07886,0.28687
MPU1,-60.39695,56.09160,-108.64122,0.33154,-0.18750,0.29077
MPU2,-77.03817,5.52672,-114.56489,0.32202,0.13403,0.29517
MPU1,-70.82442,71.95420,-76.76336,0.10205,0.08374,0.26270
MPU2,-110.03053,12.22901,-94.73283,0.16870,0.26807,0.26001
MPU1,-78.97710,49.98473,-28.80916,-0.15088,0.12476,0.39136
MPU2,-140.74809,12.06107,-77.35878,0.17578,0.22314,0.35767
MPU1,-90.56489,81.22137,22.00000,0.13892,0.09546,0.35767
MPU2,-151.32825,72.79389,-70.16794,0.05103,0.15576,0.63745
MPU1,-89.17558,134.10687,-1.02290,-0.17139,-0.08789,0.69775
MPU2,-148.07634,82.99236,-38.90076,-0.18677,0.07642,0.73389
MPU1,-104.56489,131.69466,16.45802,-0.37378,-0.10449,0.72949
MPU2,-150.15266,87.58778,-27.84733,-0.19971,0.02466,0.91650
MPU1,-93.75572,129.03816,26.39695,-0.43311,-0.26953,1.01587
MPU2,-145.12978,90.36641,-4.07634,-0.30396,-0.04102,1.00317
MPU1,-96.18320,133.38931,45.83206,-0.53101,-0.27271,1.00806
MPU2,-147.45038,73.28244,23.29771,-0.40796,-0.09692,1.14722
MPU1,-103.08397,111.92367,63.84733,-0.63477,-0.42163,1.20093
MPU2,-131.14503,64.76336,44.50382,-0.41016,-0.25513,1.31299
MPU1,-77.37405,67.72519,76.48855,-0.70898,-0.65063,1.50391
MPU2,-90.70229,47.81680,80.33588,-0.44287,-0.39575,1.47705
MPU1,-44.51908,21.28244,92.19847,-0.79785,-0.70386,1.59668
MPU2,-51.03817,5.34351,104.06107,-0.46899,-0.52295,1.56714
MPU1,-20.70229,-24.42748,100.10687,-0.61182,-0.98169,1.72266
MPU2,0.30534,30.53435,126.47328,-0.29956,-0.60278,1.54468
MPU1,26.64122,-43.26717,115.43511,-0.75293,-0.83936,1.37329
MPU2,23.43511,-21.34351,147.89313,-0.42090,-0.61011,1.30762
MPU1,4.00000,-114.42748,112.04580,-0.54126,-0.87012,1.15820
MPU2,39.95420,-39.54198,153.75572,-0.21167,-0.59619,1.23193
MPU1,12.93130,-114.36641,124.76336,-0.59253,-0.85669,1.01929
MPU2,51.51145,-96.73283,151.09924,-0.23120,-0.71387,1.36914
MPU1,14.36641,-150.32062,77.46565,-0.12109,-1.32251,1.25244
MPU2,93.80153,-79.43511,129.78625,0.06787,-0.71777,1.26807
MPU1,47.84733,-154.56488,72.09161,-0.53052,-0.96069,0.72925
MPU2,101.72519,-108.03053,112.59542,-0.01685,-0.53296,1.21362
MPU1,9.78626,-141.14503,21.16031,0.22852,-0.99512,0.74829
MPU2,99.54198,-107.67939,80.21374,0.18164,-0.35571,0.96143
MPU1,44.35115,-113.02290,25.14504,0.02808,-0.74316,0.67993
MPU2,81.03817,-96.80916,69.38931,0.23169,-0.28491,1.05103
MPU1,9.41985,-128.39694,3.66412,0.26050,-0.62793,0.65356
MPU2,64.87023,-105.61832,29.69466,0.29956,-0.11133,0.95581
MPU1,28.19847,-124.96183,-45.17557,0.31958,-0.65894,0.84473
MPU2,50.68702,-146.85497,2.71756,0.29150,-0.01172,0.83521
MPU1,-4.85496,-137.90840,-78.27481,0.35571,-0.42529,0.63232
MPU2,34.35115,-151.92366,-29.77099,0.45508,0.01929,0.83350
MPU1,-7.74046,-92.27481,-102.44275,0.69043,-0.60864,0.62891
MPU2,41.54198,-123.40458,-70.06107,0.56079,-0.01660,0.62207
MPU1,25.78626,-68.79389,-138.38168,0.57153,-0.49829,0.51758
MPU2,31.67939,-110.50381,-101.84733,0.52466,0.05176,0.41528
MPU1,7.66412,-28.15267,-140.12213,0.50586,-0.24072,0.17554
MPU2,14.45802,-47.72519,-115.67939,0.53076,0.07275,0.27466
MPU1,11.20611,31.54198,-116.61069,0.34546,-0.08643,0.11475
MPU2,-13.17557,-29.45038,-111.11450,0.33423,0.13916,0.16040
MPU1,-30.62595,34.42748,-106.97710,0.27637,0.07251,0.05127
MPU2,-42.79389,-8.16794,-106.51908,0.34375,0.21191,0.17236
MPU1,-41.60305,81.52672,-67.86259,0.25342,0.09155,0.16138
MPU2,-65.35878,37.96947,-101.16031,0.25684,0.29321,0.20459
MPU1,-63.52672,69.64886,-78.01527,0.15210,0.13306,0.23975
MPU2,-98.85497,19.61832,-100.59542,0.11133,0.34863,0.34521
MPU1,-86.38168,108.39695,-53.64885,0.00000,0.17285,0.34570
MPU2,-134.73282,37.20611,-88.90076,-0.00488,0.34985,0.37671
MPU1,-122.85497,91.81680,-50.35115,-0.13843,0.11401,0.42383
MPU2,-168.45801,50.59542,-71.96947,-0.17065,0.33594,0.56812
MPU1,-141.54199,150.90076,-3.23664,-0.41309,-0.01782,0.50195
MPU2,-163.02290,65.78626,-41.57252,-0.53442,0.08521,0.75293
MPU1,-118.93130,55.40458,-26.27481,-0.93091,-0.33545,1.33228
MPU2,-162.97710,85.64886,14.64122,-0.52759,0.06128,1.18164
MPU1,-97.37405,147.89313,98.35114,-1.00439,-0.11914,1.03687
MPU2,-149.63359,45.83206,71.93893,-0.80884,0.02515,1.24341
MPU1,-107.64886,12.71756,88.58015,-0.78906,-0.55859,1.60938
MPU2,-108.67175,42.09160,99.06870,-0.31958,-0.06445,1.60474
MPU1,-50.01527,26.01527,118.27481,-0.39404,-0.69751,1.63647
MPU2,-70.21374,23.64886,114.99236,-0.19824,-0.16040,1.66138
MPU1,-20.25954,-4.85496,106.03053,-0.10059,-0.90869,1.68530
MPU2,-27.81679,52.82443,116.22900,-0.05933,-0.23242,1.60156
MPU1,-21.64886,13.46565,102.99236,-0.37012,-0.79565,1.39233
MPU2,-9.11450,-34.48855,124.97710,-0.23608,-0.40210,1.46582
MPU1,-3.41985,-94.97710,79.74046,-0.30908,-1.06567,1.54858
MPU2,40.77863,-63.35878,108.21374,0.09717,-0.54199,1.51074
MPU1,35.74046,-95.70992,57.31298,0.06616,-1.16382,1.25488
MPU2,67.20611,-39.17557,94.62595,0.10010,-0.50903,1.34521
MPU1,35.34351,-101.29771,44.74809,-0.07812,-0.94702,0.99219
MPU2,78.36641,-88.41222,73.81680,0.01221,-0.39209,1.18018
MPU1,40.29008,-122.61069,5.83206,0.04321,-0.94751,0.96802
MPU2,92.85497,-89.02290,53.66412,0.15820,-0.38037,1.17163
MPU1,67.69466,-102.91603,-13.17557,0.17578,-0.88184,0.92188
MPU2,96.29008,-79.38931,27.83206,0.27808,-0.21997,1.10376
MPU1,70.59542,-81.87786,-27.49618,0.22119,-0.65894,0.74194
MPU2,82.80916,-120.87023,-0.80916,0.19360,-0.14893,0.83325
MPU1,52.65649,-106.50381,-90.91603,0.46289,-0.65015,0.54712
MPU2,66.44275,-105.00764,-36.13741,0.43726,-0.11646,0.66846
MPU1,49.64885,-47.22137,-72.77863,0.33374,-0.37036,0.33154
MPU2,32.41221,-76.79389,-52.48855,0.40405,-0.01685,0.55957
MPU1,6.74809,-33.51145,-101.66412,0.59814,-0.34619,0.31543
MPU2,11.34351,-72.68702,-86.87023,0.41528,0.06152,0.53125
MPU1,5.87786,10.16794,-97.86259,0.39673,-0.25513,0.42847
MPU2,-13.45038,-34.10687,-99.81680,0.40112,0.12158,0.47290
MPU1,-21.03817,25.40458,-100.53435,0.37012,-0.08447,0.30273
MPU2,-42.16794,-30.90076,-119.46565,0.30835,0.18164,0.50415
MPU1,-56.56488,68.39695,-97.58778,0.32520,-0.09277,0.34253
MPU2,-69.32825,45.32824,-117.08397,0.30884,0.21924,0.46533
MPU1,-52.00000,107.78626,-53.03817,-0.01709,0.05005,0.41406
MPU2,-101.83206,19.96947,-106.16794,-0.13037,0.29468,0.36548
MPU1,-122.87023,67.16031,-41.96947,-0.31445,0.18164,0.23486
MPU2,-138.13741,56.03053,-78.38168,-0.05664,0.24268,0.53320
MPU1,-93.81680,104.82442,-7.20611,-0.30542,-0.25317,0.80566
MPU2,-136.12213,10.33588,-65.92367,-0.50952,0.12012,0.62720
MPU1,-135.92366,51.37405,-14.67176,-0.68530,-0.09766,0.69385
MPU2,-135.14503,38.10687,-10.65649,-0.39551,-0.04321,0.91479
MPU1,-48.47328,18.15267,10.00000,-0.77856,-0.65698,1.40503
MPU2,-92.93130,-21.48092,22.94657,-0.63330,-0.14087,1.26172
MPU1,-18.48855,8.87023,49.32824,-0.75586,-0.46582,1.36304
MPU2,-62.07634,64.09161,77.95420,-0.20044,-0.10132,1.42041
MPU1,-14.32061,32.76336,95.11450,-0.27734,-0.42896,1.31763
MPU2,-55.05344,61.06870,96.94656,-0.28564,0.02515,1.30884
MPU1,-41.22137,7.72519,104.85497,-0.38013,-0.46606,1.23999
MPU2,-39.98473,7.83206,102.22900,-0.12817,-0.16333,1.27417
MPU1,-2.09160,-3.38931,94.29008,0.04932,-0.73999,1.34277
MPU2,-12.76336,36.41221,96.36641,0.09937,-0.25000,1.44165
MPU1,-6.70229,-26.35114,79.48092,-0.08301,-0.86987,1.40405
MPU2,23.43511,-17.31298,83.06870,0.00464,-0.40063,1.34302
MPU1,39.06870,-43.89313,51.35878,0.17358,-1.00195,1.36035
MPU2,54.62595,-13.43511,67.77100,0.11841,-0.43408,1.40210
MPU1,50.58015,-46.96183,36.99237,0.03589,-0.96118,1.13721
MPU2,74.68702,-41.92366,48.93130,0.09204,-0.53760,1.28760
MPU1,80.38168,-56.68702,12.12214,0.18896,-1.04419,1.10352
MPU2,95.67939,-38.65649,24.00000,0.18262,-0.41089,1.10620
MPU1,83.67939,-53.60305,-21.95420,0.17554,-0.78320,0.81055
MPU2,89.67939,-49.51145,-6.88550,0.19531,-0.26733,0.84424
MPU1,75.89313,-38.47328,-45.37405,0.31958,-0.54468,0.51611
MPU2,63.81680,-30.47328,-44.71756,0.25879,-0.12866,0.64502
MPU1,44.32061,1.92366,-67.98473,0.31470,-0.27539,0.27197
MPU2,16.65649,-15.46565,-67.34351,0.16504,-0.00269,0.46436
MPU1,1.38931,19.74046,-71.22137,0.11816,-0.11963,0.22559
MPU2,-34.64122,1.67939,-81.89313,0.04175,0.07471,0.39868
MPU1,-61.20611,51.22137,-69.51145,-0.07983,0.03394,0.10010
MPU2,-85.22137,0.54962,-71.84733,-0.23193,0.00024,0.56812
MPU1,-95.89313,32.93130,-42.83969,-0.48779,-0.20630,0.65356
MPU2,-95.61832,13.08397,-44.00000,-0.32837,-0.00854,0.82959
MPU1,-95.35878,43.75573,-8.94656,-0.42969,-0.25269,0.90161
MPU2,-80.54962,28.62595,-14.33588,-0.38086,0.06299,1.10620
MPU1,-64.68702,31.84733,22.06107,-0.62769,-0.35352,1.32666
MPU2,-53.32824,22.68702,29.22137,-0.47510,0.05762,1.19995
MPU1,-42.73283,1.29771,57.93893,-0.63501,-0.31323,1.38672
MPU2,-27.55725,14.87023,67.17558,-0.34961,0.09399,1.25879
MPU1,-15.69466,-23.87786,75.35878,-0.46240,-0.40576,1.32080
MPU2,-12.44275,-6.16794,96.39695,-0.28955,-0.00928,1.20288
MPU1,-8.96183,-61.54198,87.93893,-0.32935,-0.52759,1.24048
MPU2,7.64885,-15.72519,106.71756,-0.15869,-0.08447,1.21973
MPU1,17.20611,-66.21374,91.09924,-0.22949,-0.66162,1.20190
MPU2,27.40458,-37.51145,111.28244,-0.12866,-0.19556,1.24438
MPU1,27.52672,-91.09924,78.59542,-0.06421,-0.83057,1.18750
MPU2,58.13741,-50.35115,97.67939,0.08521,-0.24414,1.27417
MPU1,72.27481,-93.40458,56.87023,0.15942,-0.91064,1.16846
MPU2,77.37405,-62.27481,74.09161,0.17041,-0.26733,1.26465
MPU1,75.46565,-88.87023,24.41221,0.25537,-0.77515,0.99292
MPU2,77.11450,-74.53435,45.72519,0.23193,-0.20679,1.17822
MPU1,58.29008,-95.25191,-7.86260,0.29077,-0.68579,0.96875
MPU2,73.12977,-94.65649,19.98473,0.27002,-0.12622,1.12549
MPU1,51.37405,-85.02290,-39.41985,0.35181,-0.61353,0.88208
MPU2,64.71756,-100.65649,-9.17557,0.33716,-0.08423,1.01904
MPU1,36.82443,-88.79389,-71.40458,0.38818,-0.53540,0.76147
MPU2,54.47328,-123.92367,-34.90076,0.29614,-0.06714,0.78174
MPU1,52.62595,-97.49619,-99.06870,0.34985,-0.49927,0.69556
MPU2,44.59542,-135.08397,-65.40458,0.43042,-0.01978,0.64258
MPU1,44.18320,-86.93130,-128.00000,0.55420,-0.32520,0.47583
MPU2,17.41985,-112.16794,-91.74046,0.51099,0.11206,0.46729
MPU1,10.70229,-31.93893,-110.53435,0.41748,-0.00220,0.16528
MPU2,-21.46565,-55.29771,-100.12214,0.44116,0.13013,0.43921
MPU1,-34.70229,-3.22137,-119.64886,0.44751,-0.04614,0.25195
MPU2,-51.19084,-42.70229,-116.03053,0.37134,0.17920,0.36377
MPU1,-55.31298,42.97710,-100.93130,0.31055,0.00977,0.27368
MPU2,-76.18320,9.69466,-113.77100,0.34253,0.19653,0.41650
MPU1,-79.96947,71.09924,-84.25954,0.17798,0.04297,0.27563
MPU2,-105.95420,21.25191,-107.61832,0.20239,0.22412,0.34766
MPU1,-103.83206,76.19847,-54.38168,-0.00024,0.08789,0.32617
MPU2,-135.05344,53.08397,-94.04580,0.04248,0.20068,0.52832
MPU1,-116.53435,108.50381,-36.74809,-0.20312,-0.09985,0.49561
MPU2,-154.41222,44.45802,-70.96183,-0.17651,0.13452,0.58594
MPU1,-128.76335,87.17558,-6.06107,-0.43286,-0.06592,0.63184
MPU2,-158.29007,11.12977,-44.25954,-0.29224,0.09033,0.53491
MPU1,-47.35878,-43.22137,-17.89313,-0.54834,-0.32544,1.17920
MPU2,-148.12213,-17.96947,8.79389,-0.32959,-0.06812,1.16382
MPU1,-77.48092,-4.94656,77.61832,-0.92871,-0.07056,1.24365
MPU2,-144.45801,-26.06107,74.04580,-0.41577,-0.17773,1.31177
MPU1,-77.61832,-18.29008,113.06870,-0.24292,-0.35474,1.32324
MPU2,-98.41222,-9.14504,116.35114,-0.09766,-0.31641,1.41309
MPU1,-54.99237,-17.84733,124.96183,-0.12085,-0.64307,1.71729
MPU2,-40.53435,5.45038,125.86259,0.00757,-0.37988,1.57080
MPU1,-12.13740,-13.26718,134.47328,-0.11157,-0.64380,1.69727
MPU2,-1.06870,-5.61832,138.27481,0.05444,-0.45312,1.57300
MPU1,7.40458,-35.45038,134.97710,-0.05322,-0.88062,1.59155
MPU2,46.38168,-33.96947,147.12978,0.06787,-0.58643,1.50610
MPU1,31.52672,-81.83206,128.93130,-0.05273,-0.91748,1.44702
MPU2,69.60305,-48.39695,147.45038,0.13989,-0.64429,1.46777
MPU1,31.41985,-86.88550,108.29008,0.11108,-1.16382,1.35669
MPU2,107.66412,-73.98473,125.98473,0.24951,-0.69116,1.32446
MPU1,53.57252,-138.50381,49.77099,0.33984,-1.12598,1.12744
MPU2,125.16031,-81.46565,86.44275,0.43091,-0.61230,1.29590
MPU1,28.21374,-99.16031,22.54962,0.47046,-0.93579,0.78857
MPU2,119.25191,-97.12977,61.23664,0.40747,-0.54395,0.99634
MPU1,82.74809,-138.68703,-28.96183,0.44849,-1.12061,0.98193
MPU2,116.04580,-111.35878,9.67939,0.46924,-0.36597,1.03906
MPU1,31.09924,-89.75572,-76.59542,0.65723,-0.67554,0.38599
MPU2,94.79389,-107.35878,-20.13741,0.49341,-0.30737,0.90039
MPU1,26.88550,-93.98473,-102.21374,0.51245,-0.78320,0.74487
MPU2,83.32825,-124.32061,-45.19084,0.59814,-0.13794,0.42847
MPU1,68.61069,-82.77863,-110.88550,0.54810,-0.41016,0.31982
MPU2,48.04580,-112.51908,-68.93130,0.59644,-0.03833,0.49829
MPU1,1.74046,-48.99237,-120.44275,0.63843,-0.20679,0.05688
MPU2,14.04580,-84.42748,-93.41985,0.57983,0.01172,0.34497
MPU1,-18.32061,-5.35878,-118.96183,0.54956,-0.17090,0.14551
MPU2,-13.09924,-51.11450,-106.45802,0.54443,0.08618,0.26953
MPU1,-30.71756,16.48855,-111.22137,0.46899,-0.07373,0.18066
MPU2,-41.28244,-39.51145,-107.11450,0.43091,0.16455,0.22607
MPU1,-48.61069,37.02290,-91.22137,0.31689,0.04785,0.13672
MPU2,-66.70229,29.06870,-97.45038,0.53491,0.18872,0.39453
MPU1,-96.24428,103.45038,-65.45038,0.51001,0.05420,0.19629
MPU2,-88.71756,-5.41985,-114.61069,0.18359,0.30469,0.18896
MPU1,-92.48855,52.96183,-92.00000,0.09888,0.06860,0.37085
MPU2,-122.85497,38.77863,-88.41222,0.32275,0.23779,0.34424
MPU1,-125.90839,125.69466,5.41985,-0.04688,0.15576,0.24414
MPU2,-148.22900,41.25191,-77.19084,-0.01147,0.27734,0.40601
MPU1,-97.86259,47.77099,-32.68702,-0.07617,-0.33789,0.77856
MPU2,-140.96184,24.96183,-63.75573,0.02490,0.07690,0.74146
MPU1,-114.83969,75.29771,8.19847,-0.27710,-0.22095,0.71118
MPU2,-149.75572,39.72519,-35.58779,-0.16406,0.05762,0.77222
MPU1,-115.77100,63.17557,9.25191,-0.28833,-0.31616,0.80005
MPU2,-145.90840,53.14504,-20.42748,-0.25806,-0.02539,1.12231
MPU1,-123.37405,110.01527,44.79389,-0.55396,-0.49097,0.99341
MPU2,-122.50381,66.22900,26.07634,-0.32568,-0.14355,1.13306
MPU1,-88.73283,58.83969,74.16794,-0.63232,-0.61572,1.33447
MPU2,-102.79389,46.33588,64.19847,-0.37427,-0.17383,1.32007
MPU1,-74.21374,3.08397,97.20611,-0.64087,-0.70312,1.35742
MPU2,-78.41222,29.77099,101.90839,-0.31152,-0.31812,1.38403
MPU1,-53.12977,-23.58779,107.78626,-0.39136,-0.95459,1.41431
MPU2,-36.51908,22.64122,124.94656,-0.26270,-0.38745,1.42139
MPU1,-2.82443,-23.83206,125.37405,-0.42236,-1.01123,1.37061
MPU2,-3.02290,8.87023,153.32825,-0.24658,-0.43359,1.45728
MPU1,3.57252,-63.25191,129.52672,-0.35059,-1.06201,1.29663
MPU2,27.72519,-29.55725,159.54199,-0.12256,-0.52856,1.57202
MPU1,58.91603,-107.55725,111.55725,-0.23730,-1.34326,1.53394
MPU2,79.90839,-44.62595,172.68703,0.10815,-0.54443,1.52051
MPU1,81.89313,-126.93130,107.05344,0.13135,-1.16772,1.08716
MPU2,84.97710,-74.44275,144.65649,0.21094,-0.38354,1.32593
MPU1,53.31298,-147.40459,42.41221,0.27124,-1.11279,0.97803
MPU2,107.23664,-115.46565,100.99236,0.29565,-0.44434,1.33887
MPU1,44.88550,-131.34351,10.94656,0.45117,-0.92114,0.79590
MPU2,84.82442,-92.01527,67.95420,0.38257,-0.28247,1.12036
MPU1,87.75572,-129.96947,2.12214,0.27393,-0.88916,0.94067
MPU2,100.88550,-135.84734,57.75573,0.27344,-0.15747,0.94214
MPU1,80.03053,-148.35115,-32.80916,0.39819,-0.63452,0.66919
MPU2,86.80916,-121.16031,22.79389,0.53345,-0.06152,0.88818
MPU1,78.64122,-121.84733,-68.29008,0.68896,-0.61963,0.60742
MPU2,72.76336,-131.52672,-24.18321,0.52393,-0.04785,0.67773
MPU1,52.35115,-70.07633,-85.16031,0.62939,-0.36865,0.25513
MPU2,43.11450,-100.87023,-52.93130,0.51440,-0.03394,0.57910
MPU1,29.64886,-59.09924,-111.61832,0.60010,-0.41577,0.38672
MPU2,22.85496,-101.67939,-78.10687,0.56299,-0.01660,0.48438
MPU1,6.68702,-22.87023,-107.74046,0.61646,-0.22803,0.21704
MPU2,-5.83206,-79.75572,-92.87023,0.55981,0.08276,0.48486
MPU1,-27.63359,-16.22901,-130.13741,0.63257,-0.20508,0.31348
MPU2,-31.72519,-66.41222,-105.37405,0.60742,0.12866,0.43604
MPU1,-43.74046,16.41221,-105.93893,0.47974,-0.09985,0.29956
MPU2,-52.68702,-41.90840,-107.25191,0.51562,0.17212,0.36377
MPU1,-64.54962,15.89313,-116.99236,0.48584,-0.09155,0.32202
MPU2,-78.71756,-56.36641,-104.96183,0.42163,0.17847,0.27246
MPU1,-87.96947,18.93130,-90.85497,0.25977,0.04053,0.24121
MPU2,-105.67939,-9.72519,-97.40458,0.47119,0.24121,0.26855
MPU1,-96.65649,57.02290,-55.87786,0.31592,0.09253,0.27783
MPU2,-133.69466,9.06870,-95.12977,0.25244,0.32275,0.34009
MPU1,-130.45801,77.66412,-23.61832,0.03809,0.07349,0.35669
MPU2,-162.73282,43.77099,-71.64886,0.11914,0.28687,0.49170
MPU1,-139.84734,106.58015,1.69466,-0.10938,-0.02075,0.55054
MPU2,-175.23665,26.25954,-57.60305,-0.06250,0.22778,0.67676
MPU1,-145.74046,92.80916,29.84733,-0.27393,-0.28882,0.83496
MPU2,-168.70229,81.46565,-28.33588,-0.10767,0.08301,0.82373
MPU1,-102.04580,72.90076,65.11450,-0.66064,-0.34961,0.96191
MPU2,-156.67175,47.61832,12.61069,-0.33325,-0.05493,1.06079
MPU1,-114.25954,49.02290,90.54962,-0.56299,-0.49219,1.09888
MPU2,-134.35115,56.68702,49.16031,-0.31641,-0.15332,1.14502
MPU1,-69.98473,34.74809,107.08397,-0.62671,-0.66699,1.33618
MPU2,-99.22137,51.20611,88.47328,-0.41577,-0.20776,1.33032
MPU1,-43.75573,28.61069,126.67175,-0.66699,-0.72559,1.35107
MPU2,-52.41221,26.73282,118.91603,-0.40527,-0.40112,1.49268
MPU1,17.22137,-19.77099,138.15266,-0.60938,-0.83984,1.53784
MPU2,-23.80153,-2.10687,159.31297,-0.26831,-0.48096,1.57104
MPU1,-24.36641,-92.87023,122.70229,-0.29224,-1.04395,1.38721
MPU2,23.05343,5.12977,158.47328,0.01025,-0.51807,1.46826
MPU1,44.36641,-52.93130,135.52672,-0.46899,-0.98022,1.31567
MPU2,43.72519,-7.25191,185.69466,-0.22314,-0.57690,1.46875
MPU1,32.96183,-102.64122,119.92367,-0.21802,-1.19116,1.32251
MPU2,78.62595,-41.28244,182.80916,0.15991,-0.59204,1.47217
MPU1,56.94656,-108.13741,119.72519,0.09912,-1.15552,1.12207
MPU2,90.00000,-99.66412,159.16031,0.23901,-0.52930,1.53174
MPU1,44.58015,-163.57253,57.55725,0.40674,-1.26074,1.20801
MPU2,107.90839,-116.65649,111.00764,0.49878,-0.38232,1.31177
MPU1,57.95420,-128.42747,36.27481,0.44873,-0.86792,0.91772
MPU2,94.10687,-99.64886,69.11450,0.32788,-0.16260,1.26440
MPU1,39.55725,-167.57253,-21.35878,0.14771,-0.67432,0.99658
MPU2,77.74046,-133.83206,43.19084,0.27856,-0.11230,0.98047
MPU1,60.18320,-144.76335,-38.83969,0.21875,-0.62061,0.73071
MPU2,67.31298,-174.67175,11.34351,0.17310,-0.12671,0.77515
MPU1,19.17557,-159.46565,-86.25954,0.39600,-0.44238,0.41260
MPU2,33.45038,-148.91603,-21.00763,0.58154,-0.12988,0.62378
MPU1,11.45038,-105.87786,-94.18320,0.68970,-0.52466,0.33521
MPU2,15.52672,-132.41222,-54.68702,0.68701,-0.14307,0.55859
MPU1,-0.48855,-73.93893,-115.58778,0.75781,-0.45532,0.27661
MPU2,-5.63359,-114.16794,-81.83206,0.69678,-0.10156,0.39575
MPU1,-22.80916,-35.38931,-110.30534,0.64136,-0.26343,0.10010
MPU2,-33.77099,-42.18320,-88.18320,0.75098,-0.01196,0.43408
MPU1,-48.36641,-13.93893,-113.70992,0.59277,-0.30176,0.30493
MPU2,-44.77863,-88.56489,-105.90839,0.51074,0.03711,0.22510
MPU1,-54.77863,5.57252,-114.15267,0.57764,-0.15967,0.15820
MPU2,-63.63359,-28.15267,-102.03053,0.68140,0.13013,0.30249
MPU1,-69.46565,64.09161,-61.46565,0.51172,-0.05518,0.11450
MPU2,-73.72519,-25.22137,-103.06870,0.47998,0.12622,0.27734
MPU1,-66.25954,45.69466,-94.03053,0.60669,-0.19263,0.44165
MPU2,-84.87023,29.96947,-101.00764,0.55493,0.30640,0.35547
MPU1,-73.95420,68.35114,-30.64122,0.05859,0.11646,0.31958
MPU2,-102.22900,-34.15267,-65.37405,0.16138,0.14868,0.30127
MPU1,-75.84733,73.70992,50.59542,0.03564,0.08521,0.39331
MPU2,-111.80153,102.09161,-57.95420,0.24805,0.27710,0.50537
MPU1,-40.45802,84.93130,-12.70229,0.19434,-0.10254,0.74243
MPU2,-107.72519,52.88550,-50.71756,-0.01343,0.25024,0.64941
MPU1,-76.07633,132.22900,19.29771,-0.07227,0.06055,0.54126
MPU2,-116.38168,71.35878,-28.67175,-0.12573,0.24512,0.69604
MPU1,-63.11450,121.06870,20.99237,-0.14941,-0.13354,0.86279
MPU2,-115.00764,82.32061,-9.38931,-0.14380,0.22559,0.89185
MPU1,-82.50381,119.96947,37.12977,-0.19629,-0.13452,0.90747
MPU2,-110.33588,69.72519,15.02290,-0.28247,0.11743,1.01953
MPU1,-59.34351,96.97710,65.81680,-0.46191,-0.26489,1.26416
MPU2,-105.95420,65.96947,60.04580,-0.29175,0.09644,1.20752
MPU1,-97.95420,24.16794,74.48855,-0.43457,-0.26196,1.21533
MPU2,-97.92367,-25.52672,78.22900,-0.21460,0.03857,1.36646
MPU1,-67.61832,-5.49618,92.00000,-0.11133,-0.75415,1.58276
MPU2,-49.72519,48.18320,107.28244,0.07446,-0.21655,1.67529
MPU1,2.33588,16.85496,105.31298,-0.12085,-1.08350,1.76343
MPU2,3.49618,43.51145,117.93893,-0.03687,-0.32007,1.66650
MPU1,14.04580,-26.47328,95.74046,-0.12598,-0.97314,1.57593
MPU2,50.21374,-4.65649,110.47328,0.09033,-0.36353,1.60522
MPU1,76.16794,-40.73283,82.67175,0.12646,-1.15381,1.54297
MPU2,84.93130,2.93130,100.68702,0.26587,-0.39966,1.53662
MPU1,79.90839,-66.65649,58.93130,0.22461,-1.07764,1.21216
MPU2,96.44275,-31.28244,69.98473,0.32178,-0.36865,1.33105
MPU1,86.88550,-61.58779,30.97710,0.31055,-0.91724,1.00269
MPU2,96.24428,-33.08397,51.22137,0.32983,-0.24316,1.13184
MPU1,76.97710,-84.13741,0.99237,0.21704,-0.67676,0.86450
MPU2,79.14503,-75.66412,25.29771,0.26001,-0.12280,1.01001
MPU1,50.22901,-81.81680,-28.74809,0.40039,-0.57861,0.73828
MPU2,74.22900,-79.48092,-7.25191,0.35718,-0.13257,0.91406
MPU1,65.00764,-69.81680,-54.35115,0.35229,-0.60449,0.76343
MPU2,67.69466,-71.72519,-32.16794,0.35913,-0.03882,0.77271
MPU1,46.85496,-44.44275,-69.51145,0.40283,-0.36816,0.46533
MPU2,49.05344,-50.07634,-56.42748,0.31665,0.00073,0.64307
MPU1,29.23664,-11.80153,-85.51145,0.35303,-0.24048,0.45190
MPU2,25.77099,-37.31298,-69.78626,0.31885,0.08643,0.54077
MPU1,13.83206,15.09924,-75.45038,0.25806,-0.09888,0.37598
MPU2,-4.58015,-7.28244,-73.70992,0.21094,0.17896,0.42456
MPU1,-15.67939,46.29008,-63.67939,0.09058,0.10156,0.21582
MPU2,-47.08397,-15.38931,-71.57252,0.02612,0.19385,0.38843
MPU1,-68.19847,30.15267,-68.71756,0.07715,0.04126,0.37646
MPU2,-71.87786,4.47328,-76.53435,0.12158,0.23560,0.54272
MPU1,-66.13741,63.46565,-49.95420,0.01782,-0.06152,0.58032
MPU2,-87.37405,11.63359,-59.66412,-0.10107,0.23364,0.63550
MPU1,-105.98473,19.64886,-43.52672,-0.37012,0.04761,0.71655
MPU2,-102.77863,6.25954,-28.97710,-0.18115,0.24292,0.89673
MPU1,-92.25954,51.57252,18.25954,-0.40283,-0.11035,1.08740
MPU2,-95.38931,64.13741,13.98473,-0.16992,0.24609,1.06152
MPU1,-86.45802,30.88550,46.30534,-0.46606,-0.15527,1.27905
MPU2,-81.87786,24.97710,41.49618,-0.25928,0.28345,1.19727
MPU1,-68.71756,20.53435,67.25191,-0.16846,-0.36426,1.49146
MPU2,-42.42748,53.69466,64.16794,-0.02100,0.26416,1.35742
MPU1,-11.93893,16.99237,96.67175,-0.22485,-0.42163,1.53052
MPU2,-10.97710,22.59542,82.45802,-0.05884,0.16431,1.42090
MPU1,12.00000,-30.79389,78.74809,0.05371,-0.62695,1.54614
MPU2,20.19847,5.70992,85.72519,0.13501,0.05298,1.36230
MPU1,40.94656,-43.05344,76.13741,0.04980,-0.62451,1.30884
MPU2,31.05343,-21.31298,81.77100,0.10938,0.00000,1.28906
MPU1,24.25954,-71.70992,49.29771,0.23242,-0.63721,1.16895
MPU2,41.69466,-53.78626,65.20611,0.24976,-0.08765,1.30371
MPU1,45.67939,-80.76336,16.56489,0.38257,-0.86914,1.15918
MPU2,64.42748,-56.10687,27.31298,0.38086,-0.18970,1.16968
MPU1,64.64122,-63.20611,-26.41221,0.42773,-0.79004,0.87329
MPU2,67.72519,-56.25954,-8.01527,0.33569,-0.20483,0.99097
MPU1,57.58779,-33.41985,-43.52672,0.37549,-0.63794,0.63745
MPU2,62.12214,-26.44275,-37.57252,0.41724,-0.17896,0.77417
MPU1,64.29008,2.85496,-60.64122,0.42139,-0.50928,0.48584
MPU2,45.03817,-28.45802,-64.27481,0.25391,-0.05908,0.57227
MPU1,33.61832,3.69466,-74.97710,0.22363,-0.22070,0.30542
MPU2,7.96947,-5.51145,-75.86259,0.26343,0.06665,0.53540
MPU1,7.31298,51.67939,-43.25191,0.14185,-0.06348,0.29126
MPU2,-27.57252,21.16031,-68.93130,0.10181,0.09839,0.43408
MPU1,-25.95420,29.29771,-31.03817,-0.08057,0.03345,0.42065
MPU2,-55.29771,0.67176,-72.80916,-0.17700,0.20312,0.60571
MPU1,-56.07634,48.80916,-61.16031,-0.07837,-0.04004,0.64331
MPU2,-71.80153,24.41221,-52.15267,-0.09741,0.24536,0.76099
MPU1,-71.05344,39.23664,-18.97710,-0.37744,0.04004,0.89771
MPU2,-83.26717,8.51908,-23.48092,-0.24585,0.26929,0.88013
MPU1,-79.48092,36.64122,0.41221,-0.23633,-0.08081,1.00806
MPU2,-74.70229,35.19084,-1.69466,-0.14355,0.27051,0.99976
MPU1,-57.54198,48.36641,34.83969,-0.33105,-0.12207,1.17725
MPU2,-63.03817,26.12214,27.35878,-0.28809,0.25391,1.15283
MPU1,-58.71756,-1.54198,43.06870,-0.30713,-0.24585,1.42627
MPU2,-35.43512,30.41221,52.87023,-0.16284,0.25220,1.30151
MPU1,-10.01527,7.06870,84.47328,-0.37012,-0.31299,1.51392
MPU2,-12.18321,6.03053,85.32825,-0.23193,0.13403,1.36108
MPU1,-3.22137,-55.89313,72.41222,-0.18018,-0.55420,1.45264
MPU2,16.00000,-16.04580,87.43511,0.03052,0.01807,1.35522
MPU1,36.35115,-47.72519,70.53435,0.09717,-0.72217,1.33789
MPU2,42.71756,-10.58015,77.72519,0.14160,-0.09180,1.29590
MPU1,45.89313,-55.75573,43.57252,0.24805,-0.74048,1.15796
MPU2,59.83206,-24.33588,47.28244,0.23169,-0.10938,1.22681
MPU1,65.35878,-42.70229,15.02290,0.30493,-0.78882,1.08618
MPU2,73.95420,-24.61069,22.79389,0.23853,-0.17432,1.17676
MPU1,68.06107,-47.49618,-19.00763,0.26367,-0.72168,0.95703
MPU2,75.11450,-42.65649,-4.94656,0.26880,-0.11914,1.06616
MPU1,57.98473,-31.35878,-39.55725,0.36426,-0.59082,0.77271
MPU2,71.20611,-46.27481,-29.06870,0.38135,-0.08398,0.90894
MPU1,64.18320,-40.54962,-67.19084,0.41504,-0.57129,0.72461
MPU2,60.93130,-56.27481,-58.76336,0.37085,-0.03149,0.74902
MPU1,46.51908,-15.08397,-85.90839,0.43384,-0.34375,0.46558
MPU2,33.06870,-42.07634,-85.35878,0.35278,0.05908,0.56079
MPU1,16.45802,11.05344,-111.51145,0.43140,-0.23438,0.32227
MPU2,0.10687,-27.84733,-108.71756,0.23364,0.13062,0.46265
MPU1,-11.54198,45.35878,-98.10687,0.07251,-0.03271,0.25610
MPU2,-41.77099,-12.77863,-104.12214,-0.00122,0.14624,0.45776
MPU1,-64.71756,38.21374,-93.90839,-0.17188,0.04102,0.33105
MPU2,-86.58015,-21.81679,-86.53435,-0.17236,0.18311,0.49634
MPU1,-108.44275,30.35114,-53.08397,-0.30835,-0.01709,0.51343
MPU2,-100.77863,-0.56489,-64.96183,-0.11597,0.16577,0.69287
MPU1,-88.80916,24.48855,-32.77863,-0.29126,-0.11743,0.88330
MPU2,-121.23664,-3.51145,-29.74046,-0.28125,0.21313,0.85669
MPU1,-139.93893,5.90840,1.38931,-0.54395,-0.02710,0.85034
MPU2,-128.03053,-40.39695,21.35878,-0.43921,0.11890,0.91992
MPU1,-102.27481,-42.38168,47.95420,-0.62744,-0.35034,1.34424
MPU2,-102.27481,-4.87023,61.25191,-0.22485,0.12134,1.29126
MPU1,-89.77100,-1.34351,78.39695,-0.29297,-0.34766,1.20361
MPU2,-84.15267,-4.62595,92.73283,-0.23706,0.07422,1.23022
MPU1,-62.19847,-34.73283,92.38168,-0.27319,-0.60474,1.44043
MPU2,-42.39695,-19.00763,111.70992,-0.06982,-0.03369,1.37524
MPU1,-24.30534,-68.30534,91.06870,-0.04102,-0.77979,1.47583
MPU2,2.13740,-16.58015,121.66412,0.04883,-0.09253,1.40771
MPU1,7.66412,-67.12977,97.54198,0.03076,-0.83252,1.33496
MPU2,44.38168,-19.80153,108.80916,0.17432,-0.17993,1.41895
MPU1,53.32824,-83.54198,84.79389,0.08130,-0.94946,1.43945
MPU2,82.50381,-25.83206,98.54962,0.28418,-0.23169,1.51196
MPU1,85.70992,-90.44275,48.19847,0.35156,-1.19238,1.31494
MPU2,113.34351,-52.87023,71.22137,0.28955,-0.31055,1.34937
MPU1,103.93893,-95.40458,18.87023,0.22363,-1.04712,0.95776
MPU2,115.77100,-49.69466,51.38931,0.36694,-0.42676,1.22241
MPU1,101.55725,-69.61832,-0.27481,0.39868,-1.00708,0.72144
MPU2,110.50381,-52.32061,18.79389,0.42334,-0.36450,0.96143
MPU1,88.85497,-73.20611,-39.06870,0.45239,-0.82642,0.54712
MPU2,95.87786,-67.11450,-20.07634,0.46753,-0.26074,0.80957
MPU1,70.99236,-49.54198,-66.12214,0.48242,-0.61133,0.42261
MPU2,69.45038,-79.40458,-55.49618,0.46191,-0.12500,0.63892
MPU1,44.38168,-46.32061,-102.07633,0.58179,-0.47217,0.32983
MPU2,41.67939,-57.81680,-81.61832,0.51733,-0.00244,0.51221
MPU1,19.52672,4.99237,-102.12214,0.52295,-0.26367,0.21265
MPU2,9.70992,-40.32061,-97.45038,0.39502,0.07275,0.42822
MPU1,-8.13740,17.64886,-108.83969,0.39258,-0.17041,0.27002
MPU2,-18.88550,-29.86259,-109.55725,0.33374,0.14282,0.44751
MPU1,-26.10687,49.19084,-98.39695,0.29443,-0.13770,0.36475
MPU2,-40.71756,2.15267,-110.12214,0.25464,0.19409,0.46094
MPU1,-35.72519,66.47328,-81.54198,0.05542,0.01172,0.42700
MPU2,-76.39695,0.36641,-95.29771,-0.01514,0.28174,0.43530
MPU1,-100.93130,44.96183,-70.99236,-0.11035,0.16772,0.33032
MPU2,-112.07633,-7.08397,-80.91603,-0.04907,0.31299,0.55127
MPU1,-105.22137,59.98473,-45.60305,-0.15430,-0.03320,0.67871
MPU2,-133.19084,17.22137,-57.22137,-0.09302,0.22803,0.67236
MPU1,-138.38168,57.45038,-19.55725,-0.29028,-0.10107,0.67700
MPU2,-141.23665,19.93893,-37.90840,-0.23242,0.19751,0.83203
MPU1,-116.15267,54.56488,11.98473,-0.50562,-0.26294,1.04932
MPU2,-133.84734,35.48092,12.09160,-0.40234,0.09790,1.05493
MPU1,-120.88550,36.67176,49.08397,-0.65430,-0.30078,1.16064
MPU2,-118.64122,27.12977,53.93893,-0.42310,0.10083,1.19409
MPU1,-95.98473,5.48092,92.64122,-0.73511,-0.43140,1.36255
MPU2,-90.35114,5.89313,100.79389,-0.34399,-0.03369,1.41382
MPU1,-59.00763,-41.06870,106.03053,-0.35913,-0.82861,1.62085
MPU2,-42.64122,-6.38168,126.74809,-0.12354,-0.14429,1.49707
MPU1,-16.29008,-75.31298,104.82442,-0.08472,-1.03638,1.55737
MPU2,11.05344,-17.16031,131.28244,0.04810,-0.25586,1.49438
MPU1,32.03053,-78.00000,105.12977,-0.08569,-0.98218,1.28442
MPU2,38.16794,-32.18320,138.65649,0.02246,-0.32397,1.40430
MPU1,35.00763,-115.51145,92.39695,-0.05737,-1.03345,1.15967
MPU2,65.08397,-47.72519,119.02290,0.24683,-0.37988,1.37598
MPU1,77.19084,-100.79389,70.59542,0.15820,-1.14355,1.14429
MPU2,96.06107,-48.04580,101.64886,0.30151,-0.40991,1.34912
MPU1,88.01527,-140.12213,25.16031,0.28052,-1.15137,1.05225
MPU2,111.38931,-92.99236,64.22900,0.37476,-0.33130,1.18921
MPU1,92.87023,-106.06107,1.09924,0.49512,-0.90137,0.80884
MPU2,103.16031,-74.12214,32.33588,0.54785,-0.20923,1.19189
MPU1,79.03817,-116.30534,-51.57252,0.57471,-0.91138,0.84009
MPU2,100.91603,-111.93893,-14.45802,0.50879,-0.18848,0.94629
MPU1,82.15267,-80.71756,-75.75572,0.54297,-0.67627,0.55371
MPU2,81.75572,-88.83969,-40.35115,0.53491,-0.10962,0.73682
MPU1,53.14504,-72.79389,-98.76336,0.53223,-0.45215,0.38672
MPU2,48.48855,-103.52672,-68.54962,0.52002,-0.01416,0.53149
MPU1,35.08397,-45.55725,-104.79389,0.55005,-0.31348,0.30176
MPU2,17.93893,-57.08397,-79.17558,0.55688,0.01489,0.45972
MPU1,-0.30534,-14.01527,-80.48855,0.34839,-0.15161,0.19531
MPU2,-15.37405,-63.84733,-87.57252,0.41846,0.05469,0.45068
MPU1,-39.49618,3.66412,-105.66412,0.59253,-0.24341,0.31128
MPU2,-30.38168,-28.94657,-103.81680,0.43506,0.10986,0.37329
MPU1,-26.88550,49.98473,-94.77863,0.30176,-0.12476,0.30615
MPU2,-51.86259,-14.27481,-101.25191,0.29956,0.15820,0.40039
MPU1,-61.87786,53.23664,-84.59542,0.20264,0.00000,0.24194
MPU2,-76.15267,35.95420,-104.47328,0.17603,0.24585,0.37988
MPU1,-55.37405,125.66412,-75.93893,0.10571,-0.01074,0.34790
MPU2,-107.51145,46.64122,-77.98473,-0.00732,0.20654,0.48022
MPU1,-132.48856,60.30534,-49.38931,-0.34180,0.14819,0.45557
MPU2,-128.50381,4.77863,-58.68702,-0.14502,0.29565,0.60425
MPU1,-123.22137,47.86259,-11.90840,-0.21265,-0.07397,0.82690
MPU2,-141.23665,45.90840,-27.02290,-0.07764,0.29834,0.84253
MPU1,-152.97710,46.59542,23.66412,-0.39404,-0.09106,0.81299
MPU2,-138.67175,21.35878,3.29771,-0.16211,0.17969,0.92041
MPU1,-98.36641,59.02290,49.31298,-0.15674,-0.40112,1.22778
MPU2,-132.22900,38.07634,32.29008,-0.20337,0.15161,1.15674
MPU1,-113.26717,14.62595,59.60305,-0.40454,-0.54028,1.36230
MPU2,-90.09161,34.62595,62.76336,-0.14819,0.02734,1.26440
MPU1,-42.76336,14.79389,90.68702,-0.46875,-0.52637,1.45581
MPU2,-68.00000,7.37405,103.00764,-0.36328,-0.00903,1.32324
MPU1,-49.28244,-47.00763,99.17558,-0.39258,-0.61572,1.30151
MPU2,-28.94657,-25.22137,112.19847,-0.04590,-0.13599,1.37891
MPU1,13.58779,-52.67176,100.25954,-0.03516,-0.93652,1.46362
MPU2,11.63359,16.22901,132.18321,0.03857,-0.26343,1.51733
MPU1,20.93130,-51.66412,127.17558,-0.18018,-0.91211,1.30444
MPU2,41.14504,-3.57252,134.93130,0.02417,-0.33569,1.46265
MPU1,51.12977,-84.76336,107.34351,0.03076,-1.15063,1.36938
MPU2,76.16794,-24.16794,130.68703,0.13037,-0.41602,1.50171
MPU1,79.03817,-110.56489,90.22900,0.09229,-1.17017,1.20605
MPU2,96.25954,-40.48855,108.10687,0.29272,-0.41943,1.45361
MPU1,67.69466,-108.53435,51.29771,0.27441,-1.06372,1.05103
MPU2,102.94656,-81.90839,75.60305,0.32153,-0.38403,1.32935
MPU1,80.58015,-128.15266,9.06870,0.36182,-1.13477,1.08960
MPU2,110.19847,-88.22900,48.58015,0.46362,-0.32715,1.24097
MPU1,92.24428,-109.28244,-14.83969,0.44312,-0.92236,0.79077
MPU2,96.33588,-96.76336,10.33588,0.45728,-0.25366,1.01831
MPU1,73.89313,-105.57252,-50.38168,0.51099,-0.78247,0.60718
MPU2,84.53435,-108.47328,-26.67175,0.48389,-0.19482,0.74854
MPU1,61.90840,-81.87786,-63.75573,0.44873,-0.53223,0.33838
MPU2,59.90840,-82.73283,-50.30534,0.48901,-0.12109,0.61182
MPU1,31.87786,-54.33588,-106.93130,0.64941,-0.51416,0.28882
MPU2,41.96947,-93.58778,-83.40458,0.44873,-0.05737,0.41113
MPU1,23.75573,-26.21374,-110.90076,0.34692,-0.29468,0.23364
MPU2,19.17557,-48.97710,-92.67175,0.47485,0.00635,0.41138
MPU1,2.99237,13.40458,-102.54962,0.42456,-0.16284,0.16260
MPU2,-8.38168,-42.25954,-108.25954,0.39062,0.10620,0.32275
MPU1,-29.92366,34.39695,-92.24428,0.36670,-0.02637,0.19604
MPU2,-36.61069,-5.35878,-111.22137,0.39185,0.19092,0.34106
MPU1,-47.54198,43.05344,-95.49619,0.32861,-0.06055,0.27808
MPU2,-59.90840,1.12977,-118.21374,0.26904,0.23999,0.37598
MPU1,-62.15267,91.81680,-85.98473,0.16211,0.01855,0.31714
MPU2,-91.28244,13.57252,-106.32061,-0.00195,0.24585,0.33179
MPU1,-92.80916,80.42748,-62.80916,-0.19263,0.17603,0.37915
MPU2,-126.51908,14.77863,-87.19084,-0.19360,0.34692,0.46582
MPU1,-123.77100,78.18320,-52.90076,-0.27197,0.03540,0.48413
MPU2,-148.32062,7.12977,-49.66412,-0.27075,0.26123,0.65405
MPU1,-118.90076,76.48855,1.31298,-0.50269,-0.04370,0.85571
MPU2,-153.64885,35.87786,-13.70992,-0.31787,0.27075,0.92383
MPU1,-132.88550,77.34351,19.81679,-0.29272,-0.13770,1.01611
MPU2,-145.31297,64.99236,15.84733,-0.32227,0.31934,1.07983
MPU1,-119.78626,65.54198,75.17558,-0.88599,-0.05542,1.24756
MPU2,-136.13741,35.38931,59.83206,-0.50122,0.12280,1.33350
MPU1,-102.97710,29.29771,86.90076,-0.35864,-0.63403,1.63013
MPU2,-88.01527,76.36641,83.25191,-0.14917,0.12354,1.39844
MPU1,-55.26717,37.52672,124.76336,-0.51001,-0.51709,1.47900
MPU2,-55.69466,24.36641,98.41222,-0.26245,-0.01172,1.55151
MPU1,-1.28244,-30.91603,94.67175,-0.05884,-0.98608,1.74805
MPU2,-13.93893,21.49618,131.95419,-0.09473,-0.19141,1.54761
MPU1,-15.51145,-98.71756,112.68702,-0.61035,-0.85596,1.48120
MPU2,14.18321,-78.90076,162.41222,-0.30371,-0.38232,1.62061
MPU1,19.48092,-161.34351,108.51908,-0.38428,-1.12573,1.47485
MPU2,59.05344,-79.90839,164.18321,0.05664,-0.46191,1.59497
MPU1,53.52672,-155.45038,88.83969,-0.03638,-1.19214,1.20361
MPU2,91.09924,-135.77100,130.12213,0.08447,-0.43994,1.33984
MPU1,67.08397,-172.96184,30.42748,0.34375,-1.12354,0.92383
MPU2,100.77863,-107.08397,80.74809,0.47144,-0.36206,1.18530
MPU1,79.14503,-100.12214,21.29771,0.51001,-0.91602,0.68604
MPU2,90.51908,-58.22901,45.34351,0.51709,-0.25391,0.96924
MPU1,66.79389,-82.85497,-2.93130,0.45972,-0.67822,0.53638
MPU2,57.90840,-104.88550,8.39695,0.42896,-0.17188,0.87744
MPU1,40.65649,-95.17558,-35.19084,0.49438,-0.58838,0.57642
MPU2,27.14504,-87.23664,-15.81679,0.45825,-0.08032,0.77051
MPU1,25.93893,-65.95420,-30.79389,0.38916,-0.49805,0.48389
MPU2,16.33588,-97.74046,-42.36641,0.35034,-0.15698,0.71558
MPU1,5.19084,-53.57252,-87.90839,0.55640,-0.58179,0.53955
MPU2,11.43511,-69.63359,-75.81680,0.59692,-0.20703,0.63086
MPU1,9.31298,-13.37405,-91.63359,0.50659,-0.48901,0.34839
MPU2,-0.09160,-67.22137,-91.23664,0.45679,-0.09521,0.49292
MPU1,-29.48092,-34.19847,-123.64886,0.40430,-0.31372,0.29980
MPU2,-24.12214,-78.67175,-95.51145,0.44897,-0.04541,0.36011
MPU1,-36.44275,-6.07634,-104.18320,0.32617,-0.26611,0.25732
MPU2,-42.12214,-44.96183,-88.90076,0.43213,0.00952,0.38037
MPU1,-58.61069,21.54198,-101.52672,0.42798,-0.16064,0.27686
MPU2,-53.43512,-17.95420,-99.08397,0.43433,0.08643,0.36768
MPU1,-50.03053,62.33588,-82.96183,0.28735,-0.16187,0.38135
MPU2,-56.25954,52.96183,-101.22137,0.35840,0.18433,0.39673
MPU1,-33.40458,122.44275,-65.22137,0.22266,-0.01221,0.29395
MPU2,-75.20611,51.60305,-107.02290,0.10840,0.26147,0.35669
MPU1,-57.40458,110.62595,-70.48855,0.04883,0.06763,0.41431
MPU2,-103.31298,84.04580,-99.11450,0.06470,0.26025,0.52637
MPU1,-86.38168,137.17557,-52.51908,-0.17432,0.03125,0.47925
MPU2,-108.25954,54.27481,-97.93893,-0.24365,0.30615,0.56958
MPU1,-96.22900,110.32061,-53.87786,-0.32227,0.05859,0.61401
MPU2,-132.97710,94.19847,-73.22137,-0.25415,0.15625,0.82251
MPU1,-98.56489,146.18321,-3.35878,-0.79541,-0.12085,0.92505
MPU2,-136.58015,90.01527,-23.52672,-0.59131,0.14502,0.96069
MPU1,-136.33588,97.17558,34.64122,-0.79102,-0.13257,0.95483
MPU2,-136.29007,108.93130,7.60305,-0.49829,0.18311,1.04883
MPU1,-114.99236,98.25954,69.96947,-0.99341,-0.23584,1.13770
MPU2,-134.39694,46.53435,65.49619,-0.73633,-0.06616,1.44824
MPU1,-118.38168,31.46565,103.51145,-0.99268,-0.68896,1.65259
MPU2,-90.97710,69.02290,107.63359,-0.50732,-0.25195,1.68481
MPU1,-34.16794,-31.08397,121.17558,-0.95020,-1.15332,2.03247
MPU2,-25.02290,-2.39695,137.98473,-0.43066,-0.36377,1.84790
MPU1,-7.22137,-72.04580,131.02290,-0.38159,-1.20728,1.74707
MPU2,27.00763,-1.72519,151.77100,-0.14038,-0.41846,1.75562
MPU1,30.67175,-119.48092,117.43511,-0.60718,-1.24951,1.51343
MPU2,68.71756,-82.70229,154.56488,-0.23999,-0.58594,1.62061
MPU1,56.30534,-155.02290,88.42748,-0.16187,-1.28003,1.27979
MPU2,95.61832,-73.83206,133.19084,0.06860,-0.48462,1.50000
MPU1,70.01527,-121.20611,57.69466,-0.13477,-1.31543,0.83496
MPU2,109.69466,-134.06107,95.17558,-0.01465,-0.42407,1.30176
MPU1,80.27481,-183.14503,-12.44275,0.05273,-1.05518,0.95532
MPU2,107.31298,-128.88550,55.96947,0.27759,-0.28760,1.08643
MPU1,75.16031,-108.61069,-12.48855,0.26074,-0.66235,0.54663
MPU2,76.13741,-85.52672,22.90076,0.34521,-0.17114,0.92456
MPU1,40.12214,-94.22900,-50.38168,0.42749,-0.62061,0.50635
MPU2,61.64885,-126.68702,-28.44275,0.26221,-0.16602,0.63379
MPU1,45.12977,-99.46565,-104.12214,0.36328,-0.54150,0.44995
MPU2,41.77099,-129.57253,-62.74809,0.37207,-0.11353,0.55884
MPU1,15.02290,-66.35114,-113.96947,0.36792,-0.34717,0.23218
MPU2,15.55725,-86.82442,-83.61832,0.39136,-0.04736,0.43506
MPU1,-0.15267,-25.29771,-110.58015,0.30078,-0.24634,0.23535
MPU2,-8.29008,-68.24428,-96.38168,0.32080,0.00732,0.33545
MPU1,-25.03817,2.91603,-107.72519,0.26636,-0.10840,0.13257
MPU2,-41.22137,-44.09160,-106.33588,0.27930,0.10864,0.30420
MPU1,-49.35878,32.71756,-110.93130,0.30347,-0.10498,0.21216
MPU2,-60.67176,1.64885,-113.95420,0.26733,0.21851,0.27832
MPU1,-30.01527,95.51145,-63.05344,0.01221,0.11133,0.28516
MPU2,-85.46565,43.58779,-104.76336,-0.06152,0.28638,0.29614
MPU1,-94.62595,53.52672,-93.11450,-0.24561,0.20288,0.30786
MPU2,-113.77100,12.09160,-101.86259,-0.21069,0.32446,0.47119
MPU1,-80.64122,122.21374,-39.49618,-0.34058,0.02954,0.66406
MPU2,-119.14503,88.03053,-70.76336,-0.27905,0.33472,0.54810
MPU1,-114.19847,82.73283,-37.14504,-0.64795,0.16089,0.63501
MPU2,-144.21375,35.52672,-47.74046,-0.62012,0.36206,0.92261
MPU1,-110.10687,127.02290,44.82443,-0.98511,-0.06299,1.10791
MPU2,-135.12978,95.26717,26.70229,-0.66528,0.20166,1.15015
MPU1,-110.25954,37.28244,70.76336,-1.12134,-0.17603,1.51025
MPU2,-110.71756,47.35878,71.32825,-0.72803,0.15332,1.55200
MPU1,-67.40458,25.09924,119.34351,-0.95288,-0.62451,1.90137
MPU2,-60.91603,84.27481,139.67938,-0.49927,0.02051,1.71387
MPU1,-47.22137,-14.99237,161.67938,-0.78320,-0.71753,1.81567
MPU2,-8.87023,7.90840,170.12213,-0.42651,-0.10083,1.81812
MPU1,22.71756,-72.88550,169.69466,-0.58887,-1.05273,1.92871
MPU2,33.43512,-6.10687,203.92366,-0.13184,-0.26782,1.80981
MPU1,33.29771,-132.06107,158.54962,-0.18604,-1.23779,1.57202
MPU2,73.34351,-61.90840,183.03816,0.07202,-0.31543,1.56274
MPU1,57.31298,-156.65649,103.81680,0.18213,-1.19653,1.22168
MPU2,89.41985,-103.96947,146.25954,0.27100,-0.26733,1.44165
MPU1,56.65649,-187.17557,46.15267,0.29541,-1.01880,1.00000
MPU2,70.59542,-141.49619,97.02290,0.32715,-0.25391,1.16797
MPU1,29.93893,-156.67175,-9.58779,0.57202,-0.80200,0.67578
MPU2,61.03817,-128.12213,27.09924,0.42114,-0.16748,0.88647
MPU1,47.35878,-129.41985,-60.94656,0.42139,-0.64478,0.60034
MPU2,42.58015,-127.84733,-19.20611,0.35083,-0.13306,0.73120
MPU1,10.82443,-66.85497,-78.01527,0.46021,-0.43896,0.29736
MPU2,29.77099,-94.39695,-64.01527,0.33008,-0.11841,0.52930
MPU1,24.44275,-44.07634,-114.61069,0.38965,-0.44678,0.39795
MPU2,13.55725,-77.16031,-85.28244,0.34839,-0.06372,0.46021
MPU1,-4.06107,3.75573,-93.95420,0.24219,-0.15698,0.19141
MPU2,-14.45802,-25.25191,-89.17558,0.35132,0.04224,0.43408
MPU1,-22.97710,27.77099,-98.96183,0.37402,-0.18872,0.30127
MPU2,-34.12214,-25.70992,-105.08397,0.30127,0.13062,0.35352
MPU1,-37.87786,59.48092,-87.17558,0.30908,-0.08521,0.27222
MPU2,-54.44275,43.08397,-104.30534,0.27490,0.16602,0.41138
MPU1,-46.80916,93.84733,-62.77863,-0.02808,0.04517,0.35034
MPU2,-82.24428,21.61832,-98.09161,-0.07642,0.26270,0.42578
MPU1,-100.03053,72.16794,-66.24428,-0.17822,0.11401,0.43970
MPU2,-103.87786,63.74046,-81.90839,-0.08301,0.34888,0.59717
MPU1,-84.13741,123.55725,-15.35878,-0.40820,0.01318,0.79028
MPU2,-106.10687,47.57252,-54.80916,-0.47437,0.36816,0.71118
MPU1,-112.06107,85.55725,3.41985,-0.66992,0.12842,0.84961
MPU2,-106.19847,120.16794,3.87786,-0.23022,0.35962,1.02222
MPU1,-27.32825,100.15267,74.00000,-0.72485,-0.27197,1.67456
MPU2,-83.05344,102.59542,36.65649,-0.67700,0.38525,1.20410
MPU1,-79.58778,94.44275,99.54198,-0.87231,0.09204,1.11841
MPU2,-82.01527,83.83206,79.95420,-0.51025,0.34253,1.23901
MPU1,-52.04580,0.00000,113.54198,-0.66553,-0.45728,1.75488
MPU2,-51.29771,45.31298,108.61069,-0.29346,0.23218,1.51416
MPU1,-41.77099,-29.16031,116.41222,-0.41724,-0.59985,1.59497
MPU2,-18.62595,-9.48092,122.38168,-0.20557,-0.00830,1.52612
MPU1,6.15267,-85.48092,94.18320,-0.20068,-0.91138,1.65137
MPU2,18.58015,-43.75573,115.61832,-0.01538,-0.12305,1.56372
MPU1,21.55725,-102.70229,73.34351,0.05371,-0.89771,1.34766
MPU2,41.61832,-62.62595,86.62595,0.09814,-0.13599,1.47388
MPU1,34.82443,-114.77863,20.83969,0.13989,-0.94409,1.29517
MPU2,60.13741,-88.65649,54.54962,0.15405,-0.21289,1.41479
MPU1,43.52672,-98.80916,-11.29771,0.22046,-0.90234,1.07446
MPU2,69.75572,-106.36641,30.71756,0.21997,-0.20947,1.18433
MPU1,55.41985,-122.58015,-45.49618,0.25049,-0.78931,0.96069
MPU2,67.58778,-111.23664,-1.23664,0.29761,-0.13354,1.02417
MPU1,44.76336,-84.96183,-63.92366,0.34253,-0.59058,0.63306
MPU2,56.65649,-118.51908,-35.57252,0.25391,-0.10400,0.80884
MPU1,39.45038,-87.17558,-104.15267,0.35718,-0.56958,0.62744
MPU2,49.81680,-100.58015,-58.73283,0.37500,-0.07666,0.69702
MPU1,39.52672,-36.93130,-93.22137,0.32446,-0.34814,0.42017
MPU2,29.95420,-73.26717,-72.79389,0.32837,0.03760,0.52344
MPU1,12.68702,-41.05344,-113.34351,0.32983,-0.22339,0.36084
MPU2,6.16794,-68.94656,-91.17558,0.31494,0.09717,0.41504
MPU1,-5.34351,18.16794,-96.64122,0.30664,-0.07666,0.19507
MPU2,-24.90076,-9.57252,-97.87786,0.28760,0.17139,0.35303
MPU1,-38.10687,49.55725,-83.28244,0.18384,0.06836,0.19507
MPU2,-58.35115,-4.76336,-98.67175,0.07397,0.30420,0.29443
MPU1,-69.02290,63.74046,-60.68702,-0.03833,0.17944,0.28271
MPU2,-93.17558,37.35878,-75.14503,0.04761,0.33447,0.44116
MPU1,-86.35114,83.84733,-36.22901,-0.15771,0.14551,0.50928
MPU2,-122.27481,26.77863,-56.88550,-0.26147,0.32495,0.54883
MPU1,-112.73283,63.31298,5.92366,-0.49121,0.05200,0.76855
MPU2,-119.45038,56.61069,-27.61832,-0.23975,0.33936,0.74854
MPU1,-83.28244,79.83206,20.29008,-0.44849,-0.04077,0.99731
MPU2,-122.88550,81.06870,-4.22901,-0.31470,0.31128,1.01636
MPU1,-99.78626,95.81680,59.05344,-0.61499,-0.07666,1.06860
MPU2,-111.12977,63.66412,30.58015,-0.32520,0.25366,1.06299
MPU1,-85.49619,57.08397,67.08397,-0.29736,-0.34961,1.42554
MPU2,-84.38168,84.29008,53.58779,-0.31348,0.22314,1.39233
MPU1,-54.03053,42.30534,103.00764,-0.80566,-0.46484,1.68872
MPU2,-42.85496,52.03053,93.31298,-0.41797,0.09131,1.49536
MPU1,-18.15267,-15.23664,110.25954,-0.56152,-0.63770,1.60962
MPU2,-9.72519,26.68702,122.06107,-0.28149,-0.06104,1.59521
MPU1,19.11450,-44.59542,125.38931,-0.42969,-0.84497,1.62720
MPU2,22.62595,10.87023,139.74046,-0.15161,-0.14404,1.52051
MPU1,29.48092,-81.19084,115.19084,-0.22241,-0.90039,1.36060
MPU2,43.32824,-32.58015,131.87787,-0.04126,-0.21680,1.44312
MPU1,35.58779,-106.03053,85.17558,0.02393,-0.98242,1.23511
MPU2,62.15267,-47.67939,110.82442,0.07666,-0.25854,1.43750
MPU1,52.09160,-116.09161,61.40458,0.03247,-1.00488,1.14307
MPU2,80.10687,-102.54962,82.91603,0.11182,-0.29077,1.20532
MPU1,64.44275,-146.51909,-5.00763,0.35791,-0.95142,0.94995
MPU2,83.38931,-106.25954,35.58779,0.38159,-0.19897,1.18921
MPU1,63.38931,-91.46565,-30.13741,0.38989,-0.73462,0.75879
MPU2,76.65649,-103.29771,-1.05344,0.31445,-0.13477,0.89087
MPU1,52.32061,-107.72519,-84.74809,0.39771,-0.61133,0.69873
MPU2,64.53435,-119.17558,-40.54962,0.35596,-0.04517,0.75928
MPU1,43.95420,-55.60305,-93.35878,0.38013,-0.36230,0.43604
MPU2,37.11450,-91.48092,-59.92366,0.34644,0.03979,0.52441
MPU1,10.19847,-60.01527,-99.08397,0.28125,-0.16187,0.35669
MPU2,0.64122,-96.36641,-78.38168,0.40381,0.11157,0.49414
MPU1,-20.58015,-28.97710,-75.87786,0.36475,-0.07642,0.29272
MPU2,-27.43511,-44.88550,-85.74046,0.34814,0.15063,0.38770
MPU1,-34.58015,24.83969,-79.23664,0.33374,-0.06372,0.21631
MPU2,-55.06870,-15.96947,-93.92367,0.14502,0.18604,0.30249
MPU1,-66.85497,66.18320,-80.91603,0.13428,0.09814,0.14380
MPU2,-90.35114,14.01527,-82.62595,0.06982,0.20508,0.28809
MPU1,-85.23664,66.10687,-49.84733,-0.18530,0.00415,0.27466
MPU2,-118.41222,23.02290,-65.81680,-0.08887,0.18774,0.53687
MPU1,-120.79389,66.09161,-23.92366,-0.29468,0.00952,0.60962
MPU2,-135.52672,39.83206,-43.02290,-0.17261,0.21387,0.68921
MPU1,-118.83969,93.20611,8.42748,-0.35693,-0.15112,0.79492
MPU2,-129.87787,79.55725,-23.67939,-0.20239,0.24829,0.89868
MPU1,-98.68702,91.06870,28.56489,-0.43237,-0.19287,1.15405
MPU2,-107.96947,84.18320,-2.22901,-0.28369,0.18555,1.21631
MPU1,-59.22137,94.96183,51.77099,-0.44971,-0.55249,1.66797
MPU2,-62.35115,99.93893,25.81679,-0.28809,0.21680,1.37305
MPU1,-30.35114,72.73283,73.49619,-0.48218,-0.30127,1.51416
MPU2,-37.22137,76.53435,48.97710,-0.31567,0.27563,1.41455
MPU1,-8.03053,32.18320,91.84733,-0.51855,-0.40308,1.58984
MPU2,-19.64886,59.98473,88.77863,-0.25928,0.13501,1.42749
MPU1,-0.48855,-14.62595,100.39695,-0.37549,-0.63843,1.49219
MPU2,3.95420,11.08397,102.30534,-0.16748,-0.01221,1.39136
MPU1,5.43511,-58.10687,81.31298,-0.15894,-0.72876,1.32422
MPU2,22.94657,-25.34351,92.44275,-0.02417,-0.10010,1.38745
MPU1,24.42748,-70.47328,45.81680,0.06714,-0.88135,1.17041
MPU2,45.64885,-44.03053,63.70992,0.06909,-0.27100,1.28198
MPU1,45.55725,-62.10687,28.44275,0.07837,-0.90674,1.02930
MPU2,61.00763,-24.33588,43.12977,0.14673,-0.29419,1.15649
MPU1,55.38931,-67.02290,-3.96947,0.11304,-0.80200,0.87622
MPU2,61.28244,-56.70229,16.13741,0.11157,-0.21704,1.02222
MPU1,46.15267,-51.60305,-13.52672,0.11719,-0.60449,0.70020
MPU2,49.69466,-50.39695,0.74809,0.19995,-0.12305,0.88110
MPU1,40.99237,-56.77863,-54.41221,0.33813,-0.60962,0.71631
MPU2,42.73283,-54.03053,-36.29008,0.19629,-0.06836,0.79346
MPU1,32.80916,-10.61069,-60.80916,0.15112,-0.39282,0.53345
MPU2,26.16794,-27.86259,-48.88550,0.09448,-0.00049,0.69775
MPU1,18.27481,-2.22901,-67.48092,0.07886,-0.27832,0.53442
MPU2,6.85496,-32.38168,-61.80153,0.07153,0.09033,0.66333
MPU1,-4.18321,28.83969,-59.89313,0.08154,-0.13428,0.47412
MPU2,-22.64122,10.21374,-61.67939,0.04321,0.16260,0.64673
MPU1,-34.67176,38.90076,-45.00763,-0.16382,-0.05688,0.53320
MPU2,-46.07634,1.41985,-54.15267,-0.17896,0.19336,0.65527
MPU1,-52.24427,40.65649,-28.51908,-0.26489,-0.03906,0.71704
MPU2,-66.19847,24.59542,-34.41221,-0.14111,0.26123,0.77100
MPU1,-69.38931,41.05344,-4.56489,-0.29443,-0.07056,0.85742
MPU2,-71.08397,27.93893,-17.92366,-0.26367,0.26929,0.85767
MPU1,-60.58015,36.41221,19.12977,-0.45972,-0.13159,1.02612
MPU2,-67.05344,31.46565,8.45802,-0.28784,0.22534,0.99854
MPU1,-58.50382,25.49618,35.28244,-0.34595,-0.24878,1.10693
MPU2,-57.51145,40.22901,28.97710,-0.21777,0.20410,1.06201
MPU1,-40.29008,26.93130,59.84733,-0.34717,-0.32983,1.17773
MPU2,-46.87023,41.02290,52.67176,-0.23730,0.15991,1.12085
MPU1,-36.82443,-3.12977,74.76336,-0.36792,-0.42700,1.19873
MPU2,-33.78626,11.58779,67.37405,-0.19482,0.06958,1.19141
MPU1,-19.61832,-30.96183,65.54198,-0.21973,-0.63281,1.23535
MPU2,-11.31298,-0.24427,68.29008,-0.08960,-0.07837,1.26660
MPU1,4.97710,-36.18320,59.16031,-0.12354,-0.72290,1.18896
MPU2,10.21374,-22.01527,60.50382,-0.09619,-0.14136,1.23462
MPU1,15.93893,-53.69466,33.40458,-0.05371,-0.77930,1.13721
MPU2,29.80153,-24.97710,51.09924,0.01392,-0.18359,1.25513
MPU1,36.76336,-57.38931,19.67939,0.01587,-0.83643,1.10425
MPU2,49.83206,-37.34351,35.12977,0.05249,-0.19800,1.20410
MPU1,53.63359,-58.85496,1.46565,0.05127,-0.79150,1.01562
MPU2,61.98473,-40.79389,19.64886,0.10791,-0.15845,1.14722
MPU1,59.16031,-54.58015,-9.78626,0.09448,-0.69482,0.96313
MPU2,69.48092,-68.74809,-0.42748,0.14551,-0.08643,1.08057
MPU1,65.00764,-76.68702,-60.15267,0.30151,-0.73901,0.98999
MPU2,72.56489,-73.02290,-34.36641,0.29688,-0.03760,0.98633
MPU1,70.04580,-31.03817,-73.20611,0.30884,-0.51978,0.64282
MPU2,57.72519,-55.32824,-56.18320,0.19287,-0.01587,0.74023
MPU1,40.35115,-28.04580,-92.53435,0.18384,-0.32886,0.48438
MPU2,28.82443,-65.51145,-78.76336,0.17725,0.06128,0.58618
MPU1,14.54962,3.48092,-100.77863,0.23950,-0.18311,0.33179
MPU2,-9.08397,-19.98473,-88.54962,0.18530,0.10327,0.53662
MPU1,-24.27481,54.24427,-72.53435,0.02734,-0.02026,0.25342
MPU2,-52.13741,11.26718,-84.30534,0.03760,0.15015,0.49976
MPU1,-66.96183,71.51145,-60.90076,-0.12329,-0.02441,0.34082
MPU2,-84.45802,6.62595,-77.48092,-0.15283,0.12866,0.54590
MPU1,-95.63359,38.27481,-43.51145,-0.38672,-0.11157,0.62061
MPU2,-94.80916,16.51908,-54.79389,-0.27173,0.15137,0.67212
MPU1,-82.67175,60.04580,-15.25191,-0.47632,-0.15698,0.79272
MPU2,-102.71756,37.75573,-20.24427,-0.37769,0.13916,0.84253
MPU1,-103.49619,33.26717,23.46565,-0.62500,-0.15820,0.94092
MPU2,-95.64886,36.18320,8.10687,-0.35962,0.20483,0.97729
MPU1,-62.87023,47.48092,48.41221,-0.59863,-0.35327,1.19043
MPU2,-85.51145,40.45802,47.38931,-0.45752,0.11548,1.10596
MPU1,-82.96183,-10.03053,74.32061,-0.69385,-0.34912,1.22314
MPU2,-68.94656,18.32061,77.66412,-0.38159,0.09229,1.21899
MPU1,-49.87786,-37.66412,92.35114,-0.60791,-0.60327,1.37012
MPU2,-40.96183,13.70992,113.35878,-0.24023,-0.05005,1.39697
MPU1,-29.80153,-59.38931,106.94656,-0.38647,-0.77515,1.33838
MPU2,-13.12977,-18.33588,123.31298,-0.18237,-0.15625,1.41040
MPU1,-4.85496,-90.82442,97.11450,-0.31055,-0.93506,1.31982
MPU2,19.22137,-43.19084,132.36641,-0.12646,-0.28516,1.43042
MPU1,23.26718,-82.42748,101.11450,-0.11719,-1.05444,1.19800
MPU2,46.16794,-51.74046,123.64886,-0.00342,-0.32373,1.42188
MPU1,45.26717,-153.41985,47.45038,0.00439,-1.22534,1.23975
MPU2,82.51908,-90.27481,88.16794,0.11279,-0.35767,1.46167
MPU1,79.67939,-124.33588,25.49618,0.12476,-1.11865,1.11987
MPU2,98.47328,-79.09924,73.32825,0.21436,-0.35327,1.27222
MPU1,84.96183,-109.86259,14.93130,0.17700,-0.93994,0.80762
MPU2,89.74046,-101.81680,45.84733,0.25244,-0.26465,1.09619
MPU1,56.93130,-127.67939,-38.00000,0.41040,-0.79541,0.66650
MPU2,71.89313,-145.93893,1.81679,0.35840,-0.13354,0.93896
MPU1,44.64122,-119.11450,-85.60305,0.50195,-0.70752,0.63330
MPU2,57.52672,-111.69466,-30.68702,0.52710,-0.10352,0.84204
MPU1,33.70992,-66.76336,-90.33588,0.48901,-0.54688,0.43408
MPU2,37.74046,-116.77863,-63.86259,0.41162,-0.06299,0.65552
MPU1,15.89313,-62.61069,-114.71756,0.44141,-0.43213,0.41113
MPU2,17.23664,-81.23664,-81.96947,0.54883,0.00146,0.55640
MPU1,5.55725,9.95420,-92.38168,0.52588,-0.27881,0.28052
MPU2,-1.96947,-49.60305,-96.67175,0.44751,0.07397,0.46265
MPU1,-9.46565,37.89313,-108.96183,0.48706,-0.27124,0.28467
MPU2,-21.98473,-42.68702,-111.98473,0.43262,0.09790,0.37915
MPU1,-21.77099,53.74046,-92.80916,0.32349,-0.14771,0.25073
MPU2,-44.53435,-8.29008,-114.16794,0.37207,0.14600,0.32007
MPU1,-39.84733,62.10687,-72.42748,0.23706,-0.04541,0.21826
MPU2,-67.72519,11.92366,-116.93130,0.25879,0.17261,0.38354
MPU1,-54.44275,79.35878,-76.45802,0.15967,-0.10962,0.35010
MPU2,-83.09924,32.82443,-109.77100,0.11963,0.21460,0.35474
MPU1,-59.58779,111.92367,-58.21374,-0.06787,0.03101,0.32031
MPU2,-105.35878,32.39695,-98.85497,-0.10303,0.21558,0.44775
MPU1,-90.07633,87.75572,-53.12977,-0.27197,0.02539,0.54272
MPU2,-119.29771,32.87023,-77.84733,-0.31519,0.28857,0.53345
MPU1,-71.12977,94.16794,-27.00763,-0.58691,0.04858,0.70532
MPU2,-131.67938,13.57252,-33.77099,-0.59180,0.26318,0.72754
MPU1,-119.90839,30.80916,-14.61069,-0.80908,0.11938,0.89429
MPU2,-143.38931,42.44275,18.18321,-0.45532,0.21729,1.06055
MPU1,-108.87023,89.41985,76.19847,-0.71338,-0.21558,1.08179
MPU2,-122.71756,76.36641,57.87786,-0.52246,0.16089,1.12134
MPU1,-83.00764,66.32061,96.22900,-0.76245,-0.23682,1.30981
MPU2,-105.22137,93.14503,93.90839,-0.30078,0.01709,1.57495
MPU1,-46.35115,37.63359,112.36641,-0.60620,-0.83081,1.96851
MPU2,-40.83969,48.99237,122.41222,-0.44678,-0.06006,1.61011
MPU1,-1.80153,-33.06870,130.94656,-0.93457,-0.73315,1.73145
MPU2,-3.92366,18.24427,168.83969,-0.44067,-0.23218,1.72925
MPU1,19.16031,-89.87786,142.03053,-0.48633,-1.06006,1.75000
MPU2,52.19847,-19.81679,172.76335,-0.13843,-0.29639,1.66211
MPU1,51.92366,-107.95420,136.83969,-0.29810,-0.94312,1.48267
MPU2,64.80916,-39.19084,172.30534,0.06494,-0.26172,1.68530
MPU1,66.65649,-133.48091,111.22137,0.20776,-1.12573,1.37891
MPU2,80.45802,-78.74809,141.60306,0.15820,-0.27661,1.48022
MPU1,60.38168,-169.90840,68.47328,0.09229,-1.01025,1.21655
MPU2,74.42748,-159.17557,103.37405,0.13525,-0.32227,1.37500
MPU1,17.78626,-181.54199,-3.40458,0.42700,-0.95630,0.87866
MPU2,65.40458,-144.64122,44.10687,0.41553,-0.30371,1.14917
MPU1,29.78626,-128.41222,-39.77099,0.48755,-0.75928,0.64966
MPU2,46.87023,-139.48091,-3.54198,0.39185,-0.24463,0.83594
MPU1,0.51908,-140.85497,-90.38168,0.44946,-0.62622,0.45435
MPU2,20.36641,-166.59541,-45.51145,0.45630,-0.17847,0.57129
MPU1,-15.06870,-92.91603,-107.93893,0.61450,-0.46631,0.28711
MPU2,2.04580,-96.38168,-72.36641,0.58301,-0.11133,0.51318
MPU1,-15.25191,-27.54198,-93.77100,0.45850,-0.36572,0.28540
MPU2,-13.75572,-72.25954,-86.62595,0.48584,-0.06982,0.43311
MPU1,-31.45038,-21.11450,-116.10687,0.48706,-0.32495,0.27686
MPU2,-29.08397,-64.70229,-106.58015,0.45605,-0.00903,0.40381
MPU1,-36.16794,27.86259,-100.15267,0.36255,-0.23438,0.27832
MPU2,-37.48092,-22.21374,-100.70229,0.42383,0.01562,0.37964
MPU1,-40.01527,23.45038,-79.86259,0.23022,-0.11230,0.36133
MPU2,-58.24427,-24.45802,-85.72519,0.26465,0.25098,0.37354
MPU1,-68.41222,16.67175,-61.63359,0.10498,0.13867,0.33423
MPU2,-102.13741,-45.87786,-57.78626,0.26782,0.17432,0.35034
MPU1,-78.88550,19.19084,-47.74046,0.26294,-0.00708,0.48145
MPU2,-108.33588,4.30534,-60.51908,0.25854,0.25610,0.47119
MPU1,-83.37405,74.96183,-22.51908,0.16162,0.00342,0.51855
MPU2,-97.40458,53.29771,-58.82443,-0.00562,0.21582,0.66138
MPU1,-60.67176,99.05344,-9.90840,-0.28125,-0.02759,0.87231
MPU2,-91.16031,92.83969,-26.21374,-0.16431,0.30371,0.69775
MPU1,-91.51145,46.76336,-21.48092,-0.39038,0.14990,0.69800
MPU2,-111.58778,13.96947,-11.12977,-0.29004,0.24756,0.72021
MPU1,-113.08397,93.00764,50.94656,-0.34106,0.00537,0.75195
MPU2,-119.37405,117.74046,30.87023,-0.03076,0.26685,0.87402
MPU1,-91.77100,92.16794,62.01527,-0.17822,-0.22070,1.09985
MPU2,-115.12977,80.04580,47.43512,-0.20996,0.10693,1.26709
MPU1,-82.74809,82.30534,98.87023,-0.44434,-0.61279,1.66016
MPU2,-63.22137,108.94656,76.54962,-0.24512,-0.03833,1.61768
MPU1,-25.11450,4.65649,94.61069,-0.53027,-0.83496,1.99902
MPU2,-14.35114,32.85496,102.79389,-0.15210,-0.08472,1.91309
MPU1,16.33588,-5.26718,119.87786,-0.15552,-0.94702,1.87109
MPU2,37.98473,58.53435,128.62596,0.01050,-0.22339,1.90039
MPU1,66.12214,-42.09160,142.33588,-0.37134,-1.05811,1.80859
MPU2,69.75572,-7.92366,158.18321,-0.01904,-0.30859,1.70703
MPU1,70.25954,-125.52672,115.22137,0.11865,-1.26807,1.44556
MPU2,97.35878,-53.89313,139.16031,0.30615,-0.43213,1.55688
MPU1,91.23664,-114.50381,85.90839,0.35278,-1.17017,1.16724
MPU2,111.58778,-63.41985,107.06870,0.38281,-0.32471,1.41675
MPU1,84.62595,-145.84734,30.97710,0.33838,-0.99048,0.99121
MPU2,104.36641,-97.25191,58.41221,0.34399,-0.24219,1.07104
MPU1,77.32825,-119.11450,-21.29771,0.48682,-0.76074,0.69141
MPU2,77.78626,-118.48855,17.64886,0.40820,-0.14600,0.83789
MPU1,39.75573,-100.47328,-54.27481,0.54663,-0.50903,0.42700
MPU2,42.62595,-106.04580,-24.41221,0.48218,-0.09302,0.76147
MPU1,13.20611,-81.08397,-83.08397,0.51807,-0.50635,0.47192
MPU2,25.58779,-107.35878,-53.17557,0.39868,-0.07983,0.63135
MPU1,3.16031,-56.90076,-94.04580,0.34692,-0.35864,0.41772
MPU2,-1.32824,-87.58778,-64.59542,0.36743,-0.01855,0.65137
MPU1,-27.14504,-46.99237,-100.48855,0.38062,-0.32104,0.43799
MPU2,-15.84733,-88.67175,-84.48855,0.34180,0.05151,0.47461
MPU1,-27.25191,-12.54962,-100.45802,0.33838,-0.16089,0.39722
MPU2,-37.03817,-47.70992,-88.77863,0.37524,0.12451,0.45264
MPU1,-45.31298,26.56489,-77.54198,0.32007,-0.09595,0.29126
MPU2,-52.85496,-14.30534,-95.19084,0.30786,0.16187,0.38965
MPU1,-44.68702,43.98473,-84.65649,0.27661,-0.08423,0.42212
MPU2,-71.06870,4.77863,-92.77863,0.21948,0.22607,0.43799
MPU1,-67.11450,62.77863,-62.21374,0.06348,0.01196,0.35083
MPU2,-83.20611,17.93893,-87.70992,0.13892,0.22021,0.51904
MPU1,-41.90840,52.91603,-88.64122,0.12598,-0.29590,0.95264
MPU2,-64.16794,-6.74809,-100.15267,-0.14233,0.15698,0.78467
MPU1,-38.35115,97.11450,-64.22900,-0.31836,0.01709,0.73657
MPU2,-89.41985,82.42748,-55.98473,-0.09741,0.38062,0.67725
MPU1,-96.74809,88.76336,-11.16031,-0.42578,0.33154,0.59961
MPU2,-128.56488,44.10687,-35.48092,-0.22119,0.44604,0.74048
MPU1,-100.68702,88.13741,21.58779,-0.32300,0.06519,0.95410
MPU2,-138.93130,86.36641,11.11450,-0.23120,0.33740,0.97339
MPU1,-125.29771,81.95420,58.44275,-0.47705,-0.02832,1.10376
MPU2,-129.52672,52.47328,32.50382,-0.39746,0.25586,1.24487
MPU1,-97.43511,20.38168,79.64886,-0.62646,-0.36963,1.69531
MPU2,-88.25954,70.10687,92.18320,-0.30688,0.12427,1.58936
MPU1,-67.37405,46.25954,142.56488,-0.54517,-0.60205,1.69458
MPU2,-34.39695,67.90839,116.93130,-0.22046,0.06470,1.54077
MPU1,-2.65649,21.40458,141.23665,-0.31543,-0.70728,1.68726
MPU2,1.96947,43.81680,146.03053,-0.23608,-0.12964,1.67529
MPU1,21.69466,-66.45802,141.92366,-0.36865,-0.98853,1.78003
MPU2,47.16031,-7.14504,148.91603,-0.08643,-0.23682,1.61133
MPU1,56.76336,-96.01527,120.59542,-0.05933,-1.08740,1.48926
MPU2,80.33588,-30.94657,139.43512,0.05615,-0.30835,1.53442
MPU1,81.48092,-128.70229,89.09924,0.04346,-1.10864,1.30737
MPU2,99.67939,-72.99236,106.79389,0.14136,-0.29102,1.33472
MPU1,77.26717,-126.12214,41.14504,0.24170,-0.89209,0.94629
MPU2,86.19847,-104.76336,68.04580,0.16382,-0.20557,1.23999
MPU1,53.03817,-141.83206,-3.22137,0.26196,-0.80103,0.88696
MPU2,78.41222,-116.22900,42.12214,0.28833,-0.18848,1.01685
MPU1,58.58015,-113.96947,-25.89313,0.37378,-0.63330,0.66821
MPU2,61.78626,-120.27481,5.63359,0.30835,-0.07666,0.83008
MPU1,35.05344,-125.78626,-76.45802,0.44800,-0.50049,0.57373
MPU2,43.96947,-119.58778,-31.48092,0.39062,-0.01025,0.62451
MPU1,24.54962,-52.56488,-66.32061,0.41504,-0.26245,0.28296
MPU2,19.37405,-54.85496,-48.77863,0.42505,0.00439,0.50000
MPU1,2.59542,-34.01527,-81.03817,0.40576,-0.22852,0.33740
MPU2,-0.70229,-94.29008,-75.14503,0.30322,0.06079,0.44067
MPU1,-20.42748,-24.30534,-103.00764,0.47729,-0.17456,0.35327
MPU2,-17.00763,-59.34351,-99.28244,0.48828,0.12598,0.49927
MPU1,-32.29008,-42.33588,-134.22900,0.46851,-0.28394,0.59912
MPU2,-13.05344,-74.99236,-130.62596,0.34302,0.18970,0.50415
MPU1,-11.41985,83.58778,-120.27481,0.37524,-0.10596,0.38647
MPU2,-29.96947,28.73282,-121.55725,0.19116,0.22217,0.49585
MPU1,-42.77863,67.80153,-99.25191,-0.13086,0.08252,0.40454
MPU2,-61.58779,-3.08397,-106.00000,0.00391,0.33667,0.41699
MPU1,-61.06870,73.48092,-71.55725,-0.01367,0.18481,0.43921
MPU2,-100.48855,36.36641,-91.20611,0.02686,0.36914,0.41162
MPU1,-112.42748,76.41222,-52.09160,-0.18262,0.23730,0.34985
MPU2,-142.33588,40.01527,-76.87023,-0.11377,0.39771,0.52783
MPU1,-139.19084,93.35878,-15.31298,-0.36743,0.06396,0.63208
MPU2,-158.10687,58.30534,-46.36641,-0.37305,0.22217,0.74072
MPU1,-145.86259,92.56489,19.80153,-0.71802,-0.09033,0.88721
MPU2,-160.51909,51.11450,2.83969,-0.44116,0.16943,1.07227
MPU1,-133.05344,58.38168,93.37405,-0.74780,-0.38477,1.42407
MPU2,-123.96947,94.94656,54.53435,-0.59302,0.18530,1.36084
MPU1,-83.23664,79.90839,136.27481,-0.95142,-0.21631,1.63599
MPU2,-103.66412,70.35114,109.78626,-0.60913,0.23779,1.53833
MPU1,-93.83206,0.41221,120.48855,-0.65576,-0.56006,1.70581
MPU2,-83.96947,-4.07634,159.61832,-0.41431,-0.06958,1.46558
MPU1,-65.28244,-85.74046,145.89313,-0.48315,-1.07202,1.63525
MPU2,-19.48092,-14.27481,180.65649,-0.20532,-0.28882,1.55713
MPU1,1.52672,-103.74046,155.43512,-0.37891,-0.96899,1.44043
MPU2,29.60305,-41.55725,169.98473,-0.18335,-0.32935,1.71167
MPU1,43.31298,-139.41985,102.36641,-0.14673,-1.37476,1.65576
MPU2,87.35878,-54.82443,157.37404,0.05371,-0.42456,1.59424
MPU1,94.48855,-128.35115,92.96183,0.10986,-1.34375,1.20874
MPU2,114.73283,-85.77100,120.25954,0.21411,-0.40552,1.39502
MPU1,96.93130,-156.67175,14.76336,0.44043,-1.16992,0.97485
MPU2,121.74046,-111.14503,69.80153,0.36890,-0.28198,1.25439
MPU1,93.26717,-145.43512,-18.48855,0.39307,-0.86230,0.80908
MPU2,110.93130,-129.51144,28.61069,0.36279,-0.17700,0.97437
MPU1,85.52672,-144.09160,-66.24428,0.41553,-0.63501,0.62427
MPU2,78.76336,-157.52672,-10.58015,0.39355,-0.06860,0.75928
MPU1,42.91603,-109.54198,-95.49619,0.56104,-0.40454,0.29224
MPU2,42.94656,-113.48092,-50.47328,0.54810,-0.02734,0.61084
MPU1,12.61069,-70.68702,-111.69466,0.54956,-0.34790,0.31372
MPU2,17.70992,-99.37405,-76.36641,0.44482,-0.02051,0.45288
MPU1,-6.80916,-26.35114,-101.54198,0.37012,-0.22095,0.26782
MPU2,-4.61069,-73.22137,-87.87786,0.38770,0.02051,0.46118
MPU1,-22.41221,-16.03053,-122.48855,0.45361,-0.26904,0.35913
MPU2,-20.25954,-56.65649,-103.48092,0.41553,0.08057,0.39502
MPU1,-22.99237,32.79389,-95.89313,0.27612,-0.13574,0.27197
MPU2,-35.58779,-16.25954,-102.47328,0.30005,0.09814,0.32275
MPU1,-38.90076,46.42748,-90.09161,0.25293,-0.05664,0.27271
MPU2,-55.64885,11.80153,-105.16031,0.16309,0.23535,0.31763
MPU1,-55.98473,65.12977,-66.90076,-0.04492,0.12646,0.27026
MPU2,-83.95420,18.94657,-95.43511,-0.01904,0.21240,0.36377
MPU1,-85.16031,79.67939,-56.33588,-0.14624,0.17896,0.37158
MPU2,-122.22900,37.19084,-80.77863,-0.15942,0.35010,0.39258
MPU1,-123.58778,100.76336,-28.80916,-0.32642,0.15479,0.37476
MPU2,-154.59541,62.18320,-59.93893,-0.24951,0.37256,0.57227
MPU1,-107.29771,109.92367,-7.61832,-0.44824,0.05615,0.67749
MPU2,-170.53435,69.80153,-32.18320,-0.41284,0.23364,0.76465
MPU1,-115.81680,116.53435,25.60305,-0.75879,-0.11523,1.05103
MPU2,-156.96184,108.12214,2.94656,-0.53296,0.20117,1.22485
MPU1,-108.32061,71.09924,55.08397,-1.11670,-0.34448,1.71973
MPU2,-112.99236,57.58779,55.29771,-0.72021,0.19604,1.45728
MPU1,-63.72519,54.56488,120.47328,-0.89111,-0.20166,1.72998
MPU2,-84.94656,47.49618,118.16794,-0.54004,0.17383,1.64868
MPU1,-74.64122,-55.22137,120.47328,-0.68164,-0.53516,1.93726
MPU2,-47.87786,-5.61832,169.69466,-0.33667,-0.02148,1.64575
MPU1,-36.51908,-86.68702,178.93130,-0.55737,-0.81079,1.72241
MPU2,-0.59542,-38.32061,185.35878,-0.17798,-0.19556,1.61060
MPU1,-13.40458,-115.58778,154.90076,-0.10083,-1.02295,1.53027
MPU2,49.61832,-42.25954,166.82443,0.01025,-0.37427,1.53687
MPU1,55.25191,-123.74046,110.65649,0.05957,-1.23145,1.49780
MPU2,96.64122,-68.32061,130.88550,0.09424,-0.39355,1.52417
MPU1,82.59542,-141.80153,59.26717,0.11035,-1.17676,1.24878
MPU2,119.46565,-100.13741,90.39695,0.17725,-0.38965,1.35010
MPU1,87.06870,-143.69466,3.92366,0.32397,-1.01147,0.95728
MPU2,115.69466,-105.31298,41.32824,0.35034,-0.26025,1.19873
MPU1,82.70229,-104.38168,-31.46565,0.45190,-0.87280,0.77905
MPU2,107.43511,-108.10687,5.70992,0.35571,-0.19678,0.84399
MPU1,79.66412,-106.67175,-61.49618,0.36011,-0.58984,0.52002
MPU2,74.56489,-115.48092,-32.56488,0.38159,-0.11011,0.73828
MPU1,10.45802,-107.46565,-86.65649,0.37427,-0.32349,0.30811
MPU2,31.29771,-116.45802,-59.03817,0.38062,-0.00293,0.58374
MPU1,-16.25954,-56.87023,-83.17558,0.37305,-0.28662,0.28613
MPU2,5.74046,-64.58015,-69.19084,0.38379,0.02539,0.37622
MPU1,-11.32824,-15.54198,-94.99236,0.40771,-0.19971,0.31885
MPU2,-22.33588,-91.09924,-88.64122,0.27100,0.12354,0.36621
MPU1,-48.32061,-11.49618,-111.90839,0.38257,-0.12427,0.22729
MPU2,-43.31298,-36.76336,-99.51145,0.39624,0.16455,0.40796
MPU1,-41.70992,66.29008,-74.42748,0.29297,-0.06641,0.29443
MPU2,-61.00763,-3.89313,-103.22137,0.16431,0.25269,0.30933
MPU1,-67.66412,55.41985,-85.19084,0.16919,0.05200,0.30151
MPU2,-85.77100,11.83206,-103.86259,0.11938,0.28857,0.37500
MPU1,-72.12214,94.74809,-53.96947,-0.03638,0.13208,0.42651
MPU2,-112.93130,33.25191,-96.99236,-0.02295,0.29907,0.36743
MPU1,-104.45802,96.85497,-58.48855,-0.01465,0.13037,0.36401
MPU2,-144.01527,49.20611,-96.54962,-0.11816,0.35010,0.50659
MPU1,-149.86259,149.61832,-20.00000,-0.33984,0.02319,0.44263
MPU2,-161.64885,86.04580,-74.96183,-0.33545,0.24512,0.73096
MPU1,-144.91603,128.42747,-13.52672,-0.74731,-0.27148,0.96606
MPU2,-160.00000,125.08397,-35.74046,-0.58301,0.15649,1.25366
MPU1,-193.06870,162.91603,64.16794,-1.22168,-0.39648,1.02417
MPU2,-145.95419,96.61069,36.68702,-0.84863,-0.04028,1.15088
MPU1,-113.41985,71.61832,92.12214,-1.01367,-0.76538,1.61401
MPU2,-114.15267,67.64886,83.87786,-0.70581,0.03174,1.38403
MPU1,-92.77863,-19.77099,109.31298,-1.04980,-0.74097,1.42212
MPU2,-80.70229,-5.87786,124.80916,-0.59204,-0.19507,1.55835
MPU1,-27.05343,-83.02290,114.54962,-0.65698,-1.14941,1.65088
MPU2,-30.53435,-42.15267,161.16031,-0.42358,-0.36377,1.59424
MPU1,-24.91603,-153.20610,92.73283,-0.44824,-1.28979,1.30688
MPU2,23.93893,-71.09924,159.41985,-0.11011,-0.42773,1.50781
MPU1,38.76336,-131.49619,108.77863,-0.31079,-1.25757,1.17139
MPU2,65.05344,-53.49618,148.62596,-0.00464,-0.48438,1.55078
MPU1,87.89313,-164.91603,58.21374,0.05005,-1.43091,1.21582
MPU2,115.08397,-95.26717,108.91603,0.11499,-0.41284,1.38867
MPU1,117.12977,-153.34351,18.58015,0.10962,-1.17651,0.93311
MPU2,132.35115,-112.18320,66.62595,0.17944,-0.33838,1.15991
MPU1,128.36641,-140.29007,-27.23664,0.25586,-1.00537,0.75781
MPU2,124.27481,-118.21374,31.31298,0.28662,-0.19043,1.04810
MPU1,100.07633,-128.68703,-62.87023,0.31519,-0.69995,0.54907
MPU2,101.08397,-145.77100,-15.28244,0.31689,-0.07495,0.79785
MPU1,75.25191,-107.19084,-101.54198,0.47388,-0.48022,0.45776
MPU2,69.80153,-105.63359,-46.65649,0.42993,0.04980,0.63257
MPU1,41.32824,-61.84733,-93.31298,0.36060,-0.21997,0.25928
MPU2,29.69466,-115.40458,-72.68702,0.29590,0.12207,0.44800
MPU1,0.29008,-50.83969,-108.94656,0.39966,-0.12622,0.28516
MPU2,-10.00000,-77.77100,-85.31298,0.40991,0.17163,0.43042
MPU1,-29.29771,0.80916,-70.15267,0.25342,-0.00049,0.25195
MPU2,-40.25954,-32.03053,-83.28244,0.37354,0.18970,0.42773
MPU1,-50.42748,8.27481,-71.83206,0.32690,-0.09546,0.36523
MPU2,-63.96947,-50.59542,-94.64122,0.20508,0.27393,0.36548
MPU1,-72.39695,28.47328,-84.07633,0.25146,-0.03369,0.33960
MPU2,-90.79389,-18.97710,-94.00000,0.27588,0.31299,0.43433
MPU1,-94.58015,57.31298,-56.74809,0.16406,0.00586,0.38306
MPU2,-116.68702,15.72519,-87.90839,0.09790,0.26855,0.43921
MPU1,-106.61069,98.62595,-38.19847,-0.05273,0.00928,0.44897
MPU2,-130.71756,38.51908,-78.29008,-0.08545,0.27539,0.56250
MPU1,-129.86259,88.73283,-20.32061,-0.32007,-0.09595,0.69556
MPU2,-128.35115,57.89313,-54.59542,-0.24609,0.21021,0.80103
MPU1,-74.16794,92.67175,7.58779,-0.68335,-0.26855,1.18774
MPU2,-116.38168,67.95420,-7.95420,-0.44995,0.17114,1.03198
MPU1,-107.92367,77.05344,50.36641,-0.68042,-0.24634,1.03442
MPU2,-94.21374,81.51145,24.87023,-0.46265,0.15381,1.02319
MPU1,23.41985,76.51908,38.27481,-0.82666,-0.49341,1.74194
MPU2,-60.01527,69.38931,96.10687,-0.62524,0.05664,1.45190
MPU1,-39.05344,24.30534,131.09924,-0.84717,-0.18164,1.23657
MPU2,-51.16031,88.77863,136.42747,-0.31396,0.17529,1.40698
MPU1,2.32061,3.77099,152.73282,-0.46118,-0.54858,1.60522
MPU2,-37.06870,52.51908,158.24428,-0.21606,0.08667,1.44336
MPU1,-22.44275,-30.30534,156.90076,-0.11890,-0.66455,1.35571
MPU2,-20.65649,19.74046,154.96184,0.00146,-0.09619,1.53345
MPU1,5.84733,-56.79389,133.16031,-0.05762,-1.03003,1.58447
MPU2,24.09160,-33.58779,141.60306,-0.09302,-0.27832,1.57617
MPU1,26.93130,-99.05344,95.51145,-0.00024,-1.04102,1.42676
MPU2,56.83969,-40.79389,113.43511,0.11597,-0.26489,1.55151
MPU1,52.39695,-120.19847,53.22137,0.03687,-1.04980,1.29297
MPU2,78.96183,-93.87786,74.74809,0.02563,-0.34424,1.32739
MPU1,58.38168,-122.54962,3.92366,0.21606,-0.91919,1.02466
MPU2,88.82442,-83.12977,40.07634,0.23193,-0.24048,1.22852
MPU1,63.34351,-108.79389,-23.29771,0.21558,-0.81909,0.97266
MPU2,86.00000,-107.06870,13.00763,0.20337,-0.16382,1.02637
MPU1,60.53435,-107.37405,-59.29771,0.30713,-0.64795,0.77661
MPU2,71.83206,-123.78626,-14.10687,0.25610,-0.08936,0.87720
MPU1,46.83969,-108.56489,-83.77100,0.26636,-0.48853,0.63721
MPU2,51.51145,-108.01527,-42.45802,0.35352,-0.04077,0.79956
MPU1,28.15267,-42.25954,-87.43511,0.44409,-0.38477,0.50073
MPU2,37.02290,-101.55725,-66.44275,0.29980,0.03638,0.64209
MPU1,23.16031,-81.37405,-122.36641,0.30713,-0.34131,0.64868
MPU2,17.45038,-112.39695,-80.12214,0.36914,0.15063,0.54468
MPU1,-4.48855,-37.17557,-113.54198,0.37915,-0.07959,0.33691
MPU2,-12.18321,-71.98473,-92.62595,0.37793,0.18970,0.43286
MPU1,-26.19847,-7.14504,-109.95420,0.33057,-0.02344,0.31104
MPU2,-41.66412,-47.61832,-104.56489,0.31470,0.23755,0.32568
MPU1,-51.45038,26.01527,-97.55725,0.23901,0.12842,0.20361
MPU2,-81.87786,-34.53435,-101.11450,0.13599,0.29224,0.24390
MPU1,-95.80153,55.25191,-71.05344,0.05835,0.27734,0.15210
MPU2,-131.90840,32.00000,-75.58778,0.15918,0.36084,0.29272
MPU1,-128.48856,71.46565,-15.67939,-0.16431,0.16943,0.28760
MPU2,-162.67175,-9.29771,-69.19084,-0.16528,0.29102,0.47266
MPU1,-175.28244,50.18320,-42.65649,-0.06519,-0.05005,0.55029
MPU2,-168.15266,30.80916,-46.82443,0.03198,0.22412,0.79395
MPU1,-119.55725,102.12214,-5.78626,-0.19604,-0.40894,1.04492
MPU2,-140.45801,46.71756,-28.45802,-0.32935,0.16968,0.94702
