sensor,gyro_x,gyro_y,gyro_z,acce_x,acce_y,acce_z
MPU1,2.41985,0.48092,1.92366,-0.32739,-0.53027,0.74951
MPU2,-1.55725,-0.54962,0.29008,-0.02563,0.00366,0.96143
MPU1,1.52672,0.17557,1.28244,-0.34448,-0.52930,0.73877
MPU2,-2.59542,0.38168,0.67176,-0.02490,0.01123,0.97290
MPU1,0.69466,-0.18321,0.77863,-0.34326,-0.54443,0.75757
MPU2,-2.27481,0.16794,0.33588,-0.01831,0.00391,0.96582
MPU1,1.32824,0.61069,1.49618,-0.33398,-0.54541,0.75879
MPU2,-1.48092,-0.29008,-0.53435,-0.01929,0.01196,0.96704
MPU1,2.62595,0.93893,0.90076,-0.33496,-0.54053,0.76318
MPU2,-1.29771,0.82443,-0.73282,-0.01880,0.01221,0.97314
MPU1,2.27481,0.45038,0.53435,-0.34790,-0.53589,0.75415
MPU2,-1.16031,0.32061,-0.01527,-0.03223,0.00684,0.96558
MPU1,1.65649,0.48092,1.90840,-0.35303,-0.53027,0.75098
MPU2,-1.57252,-0.19847,0.64122,-0.02734,0.01709,0.95972
MPU1,1.61832,-0.12214,0.86260,-0.33862,-0.54224,0.75830
MPU2,-1.38931,0.36641,-0.16794,-0.01172,0.01318,0.96484
MPU1,1.54962,2.47328,2.32061,-0.33447,-0.51733,0.74658
MPU2,-4.32061,2.25954,0.32061,-0.03271,0.02246,0.94727
MPU1,-2.45038,-0.44275,1.03817,-0.37500,-0.51416,0.73267
MPU2,-5.81679,2.19847,2.83969,-0.03589,0.00098,0.96704
MPU1,-4.77099,1.96947,5.28244,-0.35352,-0.50879,0.73047
MPU2,-12.06107,11.78626,5.70992,-0.01514,0.03491,0.96265
MPU1,-19.56489,19.56489,22.50382,-0.36768,-0.43164,0.69336
MPU2,-20.13741,35.02290,15.37405,0.01050,0.02954,1.11475
MPU1,-9.50382,10.38931,29.52672,-0.42603,-0.79810,1.11719
MPU2,17.22137,41.84733,21.29771,0.07935,-0.03174,1.50537
MPU1,37.70992,33.25954,58.65649,-0.53613,-1.10889,1.41992
MPU2,78.03053,29.89313,11.46565,-0.05298,-0.08130,1.65088
MPU1,121.70992,-17.25191,36.90076,-0.67139,-1.29321,1.49854
MPU2,153.93893,41.02290,6.12214,-0.08545,-0.08643,1.44678
MPU1,167.58015,24.59542,91.67175,-0.67920,-0.75854,0.89795
MPU2,163.66412,65.28244,27.38931,-0.30200,0.05811,1.05933
MPU1,159.73282,-30.83969,67.94656,-0.76514,-0.51245,0.77100
MPU2,167.29771,-3.32824,40.16794,-0.40210,0.19922,0.80103
MPU1,161.10687,-52.45038,63.44275,-0.67334,-0.28345,0.63428
MPU2,162.93130,-9.43511,51.32824,-0.30762,0.29736,0.75586
MPU1,155.13741,-34.34351,80.14503,-0.47534,-0.10791,0.51733
MPU2,153.20610,-1.35878,57.75573,-0.28125,0.42651,0.55273
MPU1,142.57253,-41.48855,91.00764,-0.44897,0.06592,0.53564
MPU2,139.86259,20.51908,56.48855,-0.10913,0.51318,0.38696
MPU1,123.35114,-26.85496,84.37405,-0.13013,0.27490,0.39331
MPU2,115.37405,12.77863,43.74046,-0.02490,0.61060,0.17896
MPU1,129.46565,-43.32824,60.37405,-0.05347,0.37280,0.43042
MPU2,87.67939,-9.32824,29.16031,0.01807,0.63916,0.06006
MPU1,76.27481,-13.75572,45.30534,0.16113,0.69165,0.12158
MPU2,41.96947,24.53435,6.90076,0.13965,0.75610,-0.07471
MPU1,24.48855,-19.25191,-8.68702,0.31323,0.82007,0.12939
MPU2,-26.09160,-23.00763,-18.30534,0.14893,0.84595,-0.22314
MPU1,-52.24427,34.77863,-16.83206,0.30664,0.99658,-0.09155
MPU2,-94.64122,55.37405,-33.86259,0.22705,0.75073,-0.12207
MPU1,-118.84733,67.55725,-63.76336,0.32642,0.57715,0.08472
MPU2,-132.80916,19.09924,-55.26717,-0.04541,0.64526,-0.09766
MPU1,-133.99237,83.41222,-44.13741,-0.09253,0.47705,0.07446
MPU2,-194.16794,69.35878,-70.61069,0.02490,0.52954,0.07935
MPU1,-218.94656,111.80916,-110.36641,0.15527,0.11108,-0.07251
MPU2,-238.13741,20.21374,-104.50381,-0.11865,0.34204,0.05054
MPU1,-226.12213,94.87786,-142.19847,-0.24292,-0.21216,0.12305
MPU2,-289.38931,25.38931,-107.38931,-0.13843,0.11646,0.53906
MPU1,-250.13741,190.09160,-103.06107,-0.45679,-0.70410,-0.13501
MPU2,-296.15268,45.34351,-120.54962,-0.54077,-0.27466,0.55981
MPU1,-235.77100,61.00000,-186.70993,-0.90991,-1.08618,0.13794
MPU2,-296.83969,-192.07634,-82.88550,-0.79150,-0.78662,0.86694
MPU1,-216.40459,8.12977,-115.07633,-1.16650,-1.41553,0.42334
MPU2,-234.74809,28.79389,-47.28244,-0.14648,-0.71924,1.06543
MPU1,-172.39694,50.08397,-97.38931,-0.62842,-1.19238,0.23242
MPU2,-207.16031,-55.95420,-43.87786,-0.41406,-0.84937,0.74341
MPU1,-85.85497,43.40458,-35.64122,-0.99048,-1.20093,0.36768
MPU2,-160.33588,22.67175,-43.06870,-0.23779,-0.90967,0.81689
MPU1,-46.16031,19.90076,-64.90076,-0.71875,-1.38794,0.32666
MPU2,-100.01527,10.04580,-39.69466,-0.13940,-1.22217,1.12939
MPU1,22.32061,31.38168,-31.44275,-0.69922,-1.58228,0.81787
MPU2,-37.03817,-4.77863,-51.96947,-0.22729,-1.24414,1.08594
MPU1,-9.09160,36.77099,-29.12214,-0.65918,-1.32935,0.33398
MPU2,16.96183,76.04580,-26.97710,-0.12036,-1.39746,1.22266
MPU1,61.30534,52.45038,22.29771,-0.94165,-1.61890,0.73682
MPU2,76.03053,22.32061,1.32824,-0.29224,-1.32178,1.25439
MPU1,77.67939,-4.59542,37.99237,-0.99683,-1.59717,0.80054
MPU2,155.63359,35.66412,26.73282,-0.32568,-1.26318,1.31421
MPU1,133.30534,-23.26718,65.39695,-1.09375,-1.60156,0.78345
MPU2,221.05344,18.88550,53.29771,-0.46313,-1.17480,1.38428
MPU1,211.74046,-39.70229,122.00000,-1.28564,-1.74609,0.71558
MPU2,285.48093,17.93893,84.44275,-0.51001,-1.00488,1.07007
MPU1,232.75572,-85.85497,117.90076,-0.89209,-1.38501,0.22168
MPU2,297.08398,-15.43511,104.82442,-0.40186,-0.83862,0.82983
MPU1,250.12978,-140.19084,137.56488,-0.90820,-1.40552,0.29419
MPU2,313.41986,-42.85496,105.45038,-0.25952,-0.49048,0.67944
MPU1,250.12978,-95.70992,148.46565,-0.45898,-0.94214,-0.01709
MPU2,304.47330,2.85496,105.66412,-0.12329,-0.29370,0.30737
MPU1,250.12978,-112.61069,149.67175,-0.26465,-0.59204,-0.05884
MPU2,265.02289,-8.90076,92.83969,-0.07031,0.04907,0.15356
MPU1,223.35878,-51.29008,150.06870,0.05908,-0.06787,-0.25366
MPU2,205.31297,51.06870,84.74809,0.01147,0.30518,0.03223
MPU1,180.24428,-16.15267,144.39694,0.19312,0.30444,-0.17236
MPU2,127.03817,29.90840,63.96947,-0.04590,0.63672,-0.33838
MPU1,72.83969,-35.70229,56.65649,0.48120,0.87402,-0.35449
MPU2,-2.13740,11.95420,18.76336,0.21729,0.79199,-0.26855
MPU1,-73.99236,43.45038,-14.73282,0.72363,1.05249,-0.43994
MPU2,-109.41985,24.03053,-35.16031,0.22534,0.77246,-0.23218
MPU1,-151.98473,44.86259,-87.11450,0.36841,0.60547,0.06470
MPU2,-171.67938,4.96183,-70.65649,0.13281,0.64355,-0.04907
MPU1,-202.69466,101.76336,-119.68702,0.27710,0.37695,-0.00806
MPU2,-229.02290,-9.12977,-96.06107,-0.07935,0.47852,0.34863
MPU1,-189.14503,102.19847,-107.69466,-0.39233,-0.24170,0.47998
MPU2,-239.02290,45.58779,-98.12214,-0.14795,0.23022,0.48120
MPU1,-250.13741,20.40458,-166.51144,-0.76562,-0.49268,0.53540
MPU2,-221.20610,-90.59542,-69.40458,-0.41284,-0.10547,0.45581
MPU1,-179.19084,80.11450,-94.38931,-0.47925,-0.49268,0.28125
MPU2,-240.80916,-25.70992,-59.48092,-0.29102,-0.17310,1.09180
MPU1,-172.14503,20.19084,-108.69466,-0.77222,-1.05664,0.81592
MPU2,-208.67175,31.86259,-41.46565,-0.20093,-0.35645,0.99341
MPU1,-200.04581,46.74809,-93.86259,-0.80347,-0.91406,0.42041
MPU2,-199.46565,-60.77863,-36.80916,-0.38818,-0.42188,0.75586
MPU1,-148.21375,42.76336,-90.70229,-0.39209,-0.82178,0.25586
MPU2,-208.76335,27.95420,-38.85496,0.01782,-0.57690,1.09277
MPU1,-151.78625,65.26717,-55.45802,-0.61523,-1.37622,0.61230
MPU2,-155.64885,-44.74809,-52.56488,-0.29321,-0.73877,0.69629
MPU1,-97.59542,13.73282,-100.03817,-0.36548,-1.04175,0.18164
MPU2,-154.35115,43.86259,-37.35878,-0.01538,-1.06445,1.26440
MPU1,-83.90076,70.54962,-20.80916,-0.92578,-1.74585,0.66016
MPU2,-45.19084,1.00763,-34.82443,-0.24561,-1.19800,1.25854
MPU1,9.80916,11.16031,-25.99237,-0.82202,-1.57715,0.78589
MPU2,39.14504,80.48855,-8.94656,0.03223,-1.18970,1.46240
MPU1,88.44275,73.86259,79.41985,-0.88184,-1.65991,0.89209
MPU2,120.96183,54.24427,11.14504,-0.30151,-1.07129,1.34082
MPU1,138.29771,-23.53435,52.87023,-1.02295,-1.68799,0.94775
MPU2,201.37404,18.16794,37.55725,-0.35767,-1.07007,1.51392
MPU1,193.90840,-28.08397,99.84733,-1.01050,-1.59668,0.74756
MPU2,247.72519,35.83206,68.71756,-0.35278,-0.92041,1.37646
MPU1,195.92366,-66.33588,124.13741,-1.08667,-1.51294,0.59766
MPU2,287.52670,13.05344,104.79389,-0.44678,-0.77295,1.03271
MPU1,237.09924,-99.80153,148.64885,-0.97217,-1.26025,0.27881
MPU2,277.52670,-14.09160,124.06107,-0.38525,-0.45679,0.91748
MPU1,202.59541,-117.38931,149.67175,-0.64673,-0.91992,0.14624
MPU2,259.51144,-29.05343,126.73283,-0.28247,-0.20386,0.59058
MPU1,201.14503,-127.71756,133.90840,-0.40796,-0.62915,0.15869
MPU2,226.58015,-35.58779,108.90076,-0.11597,0.05933,0.54443
MPU1,182.36641,-98.05344,113.04580,-0.13794,-0.33691,0.17114
MPU2,201.19084,-10.36641,84.32061,-0.12427,0.14038,0.47778
MPU1,170.64885,-54.38168,119.22900,-0.22217,-0.16699,0.21826
MPU2,173.95419,30.27481,77.03817,-0.05420,0.32935,0.23462
MPU1,131.47328,-48.51145,93.15267,-0.00659,0.20898,0.14868
MPU2,126.83969,-1.92366,67.45038,0.03345,0.48877,0.09912
MPU1,92.88550,-27.20611,86.51908,0.08447,0.48022,0.14819
MPU2,74.85497,34.41221,54.04580,0.17041,0.69434,-0.13940
MPU1,36.24427,-11.78626,47.77099,0.38062,0.78491,0.03345
MPU2,-8.65649,-11.55725,26.33588,0.17480,0.78003,-0.24561
MPU1,-54.63359,-6.50382,-28.70229,0.54639,0.94531,-0.08179
MPU2,-96.50381,1.92366,-12.10687,0.32202,0.81055,-0.21411
MPU1,-108.06870,38.23664,-48.06870,0.41357,0.74268,0.12329
MPU2,-162.25954,-5.20611,-44.99237,0.19995,0.73584,-0.08203
MPU1,-183.83206,33.74046,-122.32825,0.35083,0.41553,0.17358
MPU2,-210.85497,19.96947,-68.18320,0.26245,0.52002,0.12036
MPU1,-193.75572,90.02290,-110.16031,0.12842,0.05786,0.17993
MPU2,-238.73282,-12.62595,-88.62595,-0.06128,0.35986,0.33911
MPU1,-191.00000,101.16031,-108.27481,-0.21729,-0.21899,0.28955
MPU2,-255.14503,88.12214,-93.16031,-0.00244,0.12036,0.60352
MPU1,-223.91603,110.88550,-132.66412,-0.56079,-0.65088,0.44189
MPU2,-252.90076,25.69466,-89.37405,-0.23779,-0.09741,0.51489
MPU1,-189.92366,101.29008,-100.15267,-0.65942,-0.81128,0.26953
MPU2,-249.37404,27.34351,-79.14503,-0.33521,-0.33740,0.84448
MPU1,-198.69466,44.49618,-131.37404,-0.59204,-0.94971,0.28418
MPU2,-233.48091,-203.11450,-63.29771,-0.46313,-0.69507,0.93701
MPU1,-146.87787,-34.67939,-123.48092,-0.50562,-1.52539,0.99512
MPU2,-178.06107,125.51145,-63.38931,0.38574,-0.55835,1.70288
MPU1,-170.32062,140.03816,-74.48092,-0.34155,-1.11890,0.43286
MPU2,-172.61069,-65.87786,-75.54198,-0.49243,-0.72803,0.81812
MPU1,-165.67938,-88.57252,-47.61069,-1.34839,-1.24414,0.51807
MPU2,-133.23665,-22.59542,-19.84733,-0.21118,-0.88892,1.20874
MPU1,-80.54962,66.97710,-43.58015,-0.08765,-1.56567,0.58838
MPU2,-82.82442,23.70992,-33.66412,-0.04150,-0.82495,1.00928
MPU1,-69.42748,-8.35114,-14.84733,-0.90063,-1.45483,0.54956
MPU2,-27.86259,50.03053,-9.35878,-0.00171,-1.01001,1.45923
MPU1,66.62595,80.76336,67.58778,-0.62036,-1.79419,1.10156
MPU2,82.51908,73.31298,-11.28244,-0.06055,-0.89819,1.59912
MPU1,151.28244,15.90840,81.80153,-0.92529,-1.89380,1.33203
MPU2,188.19847,81.25191,3.08397,-0.16748,-0.86670,1.67871
MPU1,216.64885,15.38168,109.53435,-0.90918,-1.61792,0.87451
MPU2,246.18321,49.80153,31.35878,-0.33496,-0.90186,1.50635
MPU1,250.12978,-61.98473,113.74809,-1.12231,-1.81934,0.78052
MPU2,303.46564,48.73283,64.21374,-0.27490,-0.86914,1.45825
MPU1,250.12978,-48.26717,157.89313,-0.87720,-1.47510,0.33276
MPU2,308.59543,2.44275,94.65649,-0.35742,-0.70044,1.00952
MPU1,250.12978,-145.47328,114.54198,-0.76831,-1.58838,0.41699
MPU2,328.13739,-20.38168,89.58778,-0.07007,-0.47632,0.89404
MPU1,250.12978,-94.65649,152.09924,-0.34741,-0.95068,0.06616
MPU2,289.64886,39.08397,92.87023,-0.07227,-0.09717,0.38135
MPU1,229.58015,-44.61832,158.61069,-0.12939,-0.25317,-0.27881
MPU2,223.00763,8.16794,89.95420,-0.19727,0.17090,0.07715
MPU1,188.16031,-34.68702,143.51144,0.02002,0.19092,-0.19019
MPU2,147.09924,28.53435,72.44275,-0.07227,0.47339,0.09521
MPU1,124.10687,-50.29008,101.50381,0.07861,0.40332,0.08203
MPU2,87.34351,57.35878,48.27481,0.08423,0.59692,0.18701
MPU1,62.68702,11.48092,74.86259,0.25073,0.59937,0.01855
MPU2,14.96183,40.91603,19.38931,-0.00562,0.68726,-0.18799
MPU1,-16.83969,20.02290,18.83969,0.35596,0.91089,-0.16455
MPU2,-67.75572,52.15267,-10.93130,0.13501,0.77515,-0.05322
MPU1,-130.88550,101.46565,-10.60305,0.39185,0.92236,-0.18994
MPU2,-131.26718,75.61832,-43.29771,0.14258,0.85815,-0.16748
MPU1,-141.72519,136.94656,-13.32824,0.18311,0.68311,0.14551
MPU2,-161.37404,88.85497,-73.26717,0.01367,0.79175,-0.17603
MPU1,-158.38168,166.08397,-48.80916,0.10107,0.52759,0.06763
MPU2,-200.44275,98.87023,-108.79389,-0.06494,0.62061,0.00293
MPU1,-186.46565,94.38168,-163.53435,-0.29175,-0.11523,0.42554
MPU2,-184.35115,-83.29771,-118.30534,-0.41357,0.31372,0.18237
MPU1,-152.37404,134.39694,-123.12214,-0.23950,0.09009,0.07422
MPU2,-232.99237,43.32824,-109.84733,-0.25244,0.24341,0.85474
MPU1,-162.03816,79.14503,-130.14503,-1.12573,-0.67798,0.81836
MPU2,-193.35878,7.51145,-88.88550,-0.52759,-0.06836,0.76147
MPU1,-184.51144,25.19847,-154.65649,-0.99854,-0.60986,0.51978
MPU2,-154.93130,-151.66412,-73.63359,-0.48999,-0.32935,0.91016
MPU1,-79.55725,-23.48855,-124.75572,-0.69653,-0.91113,0.84082
MPU2,-145.61832,-14.38168,-56.83969,-0.14893,-0.26050,1.10522
MPU1,-108.26717,157.06870,31.01527,-0.76392,-0.43823,0.14185
MPU2,-129.00763,80.80916,-54.35115,-0.68066,-0.56006,0.81714
MPU1,-44.74809,-39.16031,-106.39695,-1.14038,-1.12109,0.82080
MPU2,-105.52672,-45.32824,-45.26717,-0.34497,-0.55371,1.08862
MPU1,-23.60305,130.34351,33.90840,-0.72803,-0.66504,0.33423
MPU2,-89.83206,97.61832,-44.53435,-0.37769,-0.56177,0.79541
MPU1,-30.39695,-37.43512,-69.05344,-1.01685,-0.86011,0.70581
MPU2,-65.45038,-43.34351,-40.39695,-0.49780,-0.57446,1.23193
MPU1,-31.38168,83.99236,-3.13740,-0.99072,-0.84570,0.58081
MPU2,-11.19084,74.44275,-9.20611,-0.50806,-0.82324,1.30127
MPU1,17.22137,-24.87023,-3.38168,-1.52197,-1.23999,1.20093
MPU2,87.09924,-22.42748,7.89313,-0.63184,-0.81641,1.58057
MPU1,108.96183,5.33588,48.95420,-1.26270,-1.26245,1.07275
MPU2,160.67175,52.76336,45.35878,-0.57764,-0.79736,1.53467
MPU1,146.73282,-55.79389,80.00000,-1.54224,-1.17529,0.93652
MPU2,209.72519,7.55725,88.22900,-0.69604,-0.73950,1.30713
MPU1,177.54199,-69.19847,127.37405,-1.32178,-1.09863,0.59375
MPU2,242.59541,6.29008,118.24428,-0.70850,-0.61572,0.92993
MPU1,198.80916,-117.77100,140.36641,-1.13770,-0.89453,0.24976
MPU2,237.89313,10.45802,141.22137,-0.48193,-0.45044,0.73340
MPU1,174.30534,-102.22137,179.92366,-0.77612,-0.61182,0.02710
MPU2,210.96184,-32.88550,137.09924,-0.38770,-0.10083,0.29590
MPU1,151.16031,-112.57252,134.06870,-0.29590,-0.27832,-0.05811
MPU2,180.44275,14.48855,123.48092,-0.13135,0.08887,0.29004
MPU1,139.93130,-80.64122,157.82443,-0.24170,-0.00122,0.11719
MPU2,136.61069,-31.35878,105.43511,-0.25049,0.38770,0.24561
MPU1,132.00763,-136.72519,115.03817,-0.34204,-0.00122,0.46631
MPU2,123.12977,-18.97710,83.83206,-0.10229,0.56299,0.31128
MPU1,124.11450,-70.93893,119.57252,-0.06006,0.42261,0.31592
MPU2,103.80153,-7.38931,70.79389,-0.09595,0.71045,0.10278
MPU1,163.41222,-108.12977,86.59542,0.10303,0.47754,0.38232
MPU2,80.80916,-28.67175,53.32824,0.11963,0.83130,-0.03564
MPU1,128.12213,-106.02290,28.14504,0.49072,0.85278,0.10547
MPU2,29.08397,10.09160,16.71756,0.33032,0.90405,-0.05518
MPU1,50.67939,9.34351,10.35114,0.59082,0.98950,-0.03320
MPU2,-33.58779,15.26718,-19.09924,0.19653,0.94312,-0.05688
MPU1,-100.60305,22.47328,-56.15267,0.57178,1.17407,-0.24609
MPU2,-115.00764,30.99237,-55.08397,0.22681,0.91968,0.14355
MPU1,-197.80916,122.05344,-48.54962,0.30347,0.72852,-0.02393
MPU2,-156.83969,20.76336,-76.07633,-0.01538,0.82935,-0.01587
MPU1,-215.12213,92.25954,-118.27481,0.18188,0.47778,0.18457
MPU2,-214.39694,32.09160,-94.15267,0.08521,0.62695,0.16187
MPU1,-250.13741,137.11450,-132.32825,-0.09448,0.12280,0.07617
MPU2,-244.58015,-57.40458,-107.02290,-0.22949,0.38013,0.15771
MPU1,-228.54962,111.81680,-152.35878,-0.29639,-0.28003,0.16748
MPU2,-247.14503,43.57252,-88.93130,-0.19336,0.01855,0.68823
MPU1,-205.06870,170.27481,-88.74046,-0.71802,-0.48218,0.49268
MPU2,-215.29771,84.82442,-95.17558,-0.34668,-0.09326,0.53882
MPU1,-163.64885,74.12977,-154.16031,-1.08496,-0.76147,0.69678
MPU2,-169.93893,-71.96947,-80.09161,-0.57007,-0.26001,1.10767
MPU1,-93.25954,46.93893,-67.29008,-1.09814,-0.76538,1.03442
MPU2,-123.12977,-4.04580,-76.71756,-0.44800,-0.26904,0.94800
MPU1,-97.84733,65.11450,-104.66412,-0.79395,-0.58130,0.40723
MPU2,-126.21374,44.29008,-54.06107,-0.31982,-0.49829,1.10571
MPU1,-88.58778,48.55725,-63.00000,-0.96216,-1.01074,0.71582
MPU2,-86.61069,-86.38168,-70.16794,-0.52319,-0.57983,0.99561
MPU1,-78.19847,-46.83206,-159.37404,-0.56519,-0.88574,0.73999
MPU2,-88.38168,-95.98473,-69.41985,0.03882,-0.54468,1.05469
MPU1,-113.53435,16.19847,-60.13741,-0.53442,-0.81738,0.37817
MPU2,-99.57252,16.94657,-58.94656,-0.03857,-0.57471,1.02124
MPU1,-160.34351,63.22137,-72.20611,-0.39136,-0.82300,0.02051
MPU2,-86.80916,-57.32824,-40.44275,-0.41821,-0.85376,0.66235
MPU1,-143.25191,-54.31298,-68.95420,-0.89185,-1.13501,0.27026
MPU2,-116.27481,-46.71756,-15.89313,-0.21924,-0.75952,0.83862
MPU1,-106.23664,16.25191,-22.67939,-0.57300,-0.93701,0.10278
MPU2,-70.33588,10.06107,-0.25954,-0.00684,-0.79688,0.55493
MPU1,-71.33588,40.48092,-12.84733,-0.20483,-0.96558,-0.02295
MPU2,-76.36641,14.97710,-17.92366,-0.03882,-0.74316,0.67285
MPU1,-29.75573,-28.54198,-37.49618,-0.71973,-1.51221,0.51489
MPU2,19.57252,4.96183,-15.29771,-0.01221,-1.12134,0.90601
MPU1,99.81680,51.96947,39.12214,-0.62891,-1.52173,0.29297
MPU2,83.64886,75.92367,3.52672,0.04492,-1.21045,1.13696
MPU1,161.39694,17.86259,58.39695,-0.71094,-1.85767,0.61719
MPU2,171.02290,63.14504,26.71756,-0.13867,-1.16992,1.25146
MPU1,177.70229,-25.51908,71.29008,-0.91260,-1.57178,0.36768
MPU2,196.18321,13.61832,44.30534,-0.24536,-0.96045,1.12939
MPU1,206.83206,-48.75573,65.96183,-0.71289,-1.48535,0.40405
MPU2,222.22900,37.51145,60.16794,-0.18335,-0.83374,1.02075
MPU1,207.54962,-52.35878,101.12214,-0.69556,-1.13086,0.21484
MPU2,230.56488,20.24427,73.41985,-0.31787,-0.58838,0.86572
MPU1,215.58015,-47.14504,115.66412,-0.58838,-0.96313,0.25366
MPU2,229.69466,23.51145,81.51145,-0.21997,-0.27539,0.63037
MPU1,163.95419,-68.97710,97.90839,-0.49146,-0.52124,0.14624
MPU2,188.82443,16.53435,83.92367,-0.04077,-0.05127,0.58374
MPU1,175.66412,-63.15267,89.04580,-0.21191,-0.53052,0.47949
MPU2,181.14503,-6.90076,64.61069,-0.22192,0.09302,0.62866
MPU1,157.83969,-50.03053,88.60305,-0.34521,-0.23584,0.43237
MPU2,161.72519,17.23664,60.18320,-0.13428,0.25781,0.54199
MPU1,158.14503,-30.94657,98.30534,-0.36133,-0.18530,0.48535
MPU2,145.25191,67.38931,56.35115,-0.04761,0.39038,0.57397
MPU1,131.56488,-3.99237,103.48855,-0.19727,0.08252,0.46753
MPU2,136.61069,-4.68702,53.45038,-0.36377,0.42163,0.35010
MPU1,151.93130,-21.40458,91.89313,-0.34155,0.20093,0.46362
MPU2,118.47328,7.74046,50.00000,-0.11987,0.66162,0.27930
MPU1,123.29008,-43.64885,61.85496,-0.17676,0.38135,0.55225
MPU2,91.92367,-0.45802,40.13741,-0.06030,0.74854,0.19067
MPU1,117.12977,-41.42748,62.95420,-0.11401,0.63208,0.49756
MPU2,45.02290,-20.47328,29.52672,-0.03613,0.85498,-0.10571
MPU1,19.32061,-14.40458,22.43511,0.31152,1.06201,0.05371
MPU2,-31.81679,4.50382,-4.18321,0.13672,1.00684,0.05566
MPU1,-82.52672,22.88550,-44.87023,0.37939,0.98047,0.16382
MPU2,-84.33588,4.90076,-31.09924,0.16479,0.91821,0.00171
MPU1,-120.94656,19.16794,-71.79389,0.09375,0.69507,0.44067
MPU2,-122.64122,-24.91603,-48.15267,0.01196,0.84131,0.28931
MPU1,-151.78625,66.43511,-57.45802,-0.11548,0.47705,0.50317
MPU2,-125.14503,38.25954,-54.48855,-0.06909,0.71484,0.28345
MPU1,-118.73283,76.16031,-81.45038,-0.20752,0.26807,0.64209
MPU2,-139.51144,-8.61069,-61.09924,-0.28101,0.59399,0.47998
MPU1,-119.76336,53.54198,-55.95420,-0.66577,0.17139,0.58862
MPU2,-139.80153,-34.12214,-52.91603,-0.38770,0.46411,0.56250
MPU1,-119.83969,-0.48855,-117.71756,-0.41895,-0.13037,0.77539
MPU2,-132.91603,-31.32825,-45.26717,-0.23462,0.27002,0.66870
MPU1,-128.90076,35.78626,-55.25191,-0.70386,-0.03174,0.47168
MPU2,-147.69466,-29.26718,-37.43512,-0.32153,0.25024,0.79102
MPU1,-113.21374,22.55725,-82.82442,-0.42554,-0.39526,0.70581
MPU2,-139.09924,-13.75572,-33.60305,-0.26367,0.06006,0.68701
MPU1,-129.14503,27.84733,-60.70992,-0.57739,-0.22070,0.41455
MPU2,-158.94656,-14.77863,-34.91603,-0.25073,0.02344,0.72192
MPU1,-117.64886,20.33588,-77.00764,-0.63818,-0.65356,0.59302
MPU2,-145.75572,-46.32061,-23.95420,-0.29004,-0.23145,0.88086
MPU1,-107.74046,15.70229,-54.80916,-0.51440,-0.64722,0.58862
MPU2,-149.41985,17.09924,-31.93893,-0.04175,-0.17944,0.93872
MPU1,-116.53435,59.41985,-64.17558,-0.31006,-0.74194,0.41626
MPU2,-143.19084,-24.83969,-24.79389,-0.33374,-0.56030,0.86792
MPU1,-111.41222,5.68702,-49.73283,-0.77246,-0.85571,0.51172
MPU2,-138.99237,2.94656,-17.96947,-0.18506,-0.48560,1.02686
MPU1,-97.81680,30.47328,-55.18320,-0.39551,-0.92480,0.49023
MPU2,-124.51908,-38.42748,-27.70992,-0.24219,-0.61938,0.85718
MPU1,-95.45038,-25.16794,-58.45802,-0.73535,-1.03711,0.53589
MPU2,-111.74046,-24.87023,-17.41985,-0.12280,-0.63232,0.93945
MPU1,-109.40458,19.32825,-37.95420,-0.34741,-0.92358,0.22363
MPU2,-111.89313,-39.70992,-20.12214,-0.11377,-0.80225,0.72241
MPU1,-83.03053,-28.45038,-40.32061,-0.41919,-1.12817,0.38696
MPU2,-77.74046,-23.93893,-22.74809,0.00513,-0.87939,0.85791
MPU1,-18.49618,6.48855,-17.15267,-0.46875,-1.41724,0.60815
MPU2,-4.10687,-7.72519,-13.11450,-0.04248,-1.14990,1.21265
MPU1,65.04580,14.83206,13.67176,-0.64429,-1.68555,1.00977
MPU2,84.13741,59.60305,-2.99237,0.07739,-1.09790,1.44800
MPU1,108.46565,30.38931,49.76336,-0.63818,-1.56030,0.96167
MPU2,150.01527,40.48855,14.76336,-0.17432,-1.10571,1.41162
MPU1,149.12978,-11.04580,59.87786,-0.89478,-1.59741,0.93896
MPU2,193.31297,18.61069,42.04580,-0.26758,-1.01685,1.48291
MPU1,142.77100,-33.27481,79.84733,-0.91553,-1.43018,0.60669
MPU2,215.16031,-9.23664,67.80153,-0.31396,-0.90454,1.25659
MPU1,181.43512,-80.04580,89.78626,-0.87866,-1.47803,0.64282
MPU2,225.67938,16.24427,85.48092,-0.18140,-0.60571,1.12671
MPU1,143.63359,-49.28244,109.19847,-0.61450,-0.93408,0.22681
MPU2,201.52672,-23.64886,105.41985,-0.28076,-0.38306,0.73364
MPU1,144.87022,-91.34351,103.93130,-0.51343,-0.85254,0.35938
MPU2,198.53435,-1.49618,93.43511,-0.11792,-0.06738,0.71851
MPU1,121.72519,-44.21374,117.42748,-0.33301,-0.30640,0.18921
MPU2,141.78625,30.80916,87.87786,-0.20068,0.15503,0.81323
MPU1,91.07633,-28.70229,120.74046,-0.49756,-0.27002,0.49634
MPU2,139.83206,14.15267,84.83969,-0.25024,0.28125,0.38013
MPU1,100.35114,-64.41222,80.97710,-0.33179,-0.17603,0.50610
MPU2,121.81680,23.17557,71.66412,-0.10034,0.32324,0.74854
MPU1,109.87786,-4.92366,107.41222,-0.23022,-0.20532,0.54468
MPU2,133.03816,16.36641,61.64885,-0.10181,0.29077,0.34253
MPU1,109.25954,-35.05344,82.00764,-0.22632,-0.03711,0.43530
MPU2,135.77100,4.94656,62.38168,-0.04419,0.29370,0.35938
MPU1,137.87787,-45.49618,86.53435,-0.24512,-0.14380,0.59595
MPU2,146.83969,8.19847,67.29771,0.04150,0.41357,0.42651
MPU1,141.84734,-39.96947,105.88550,-0.22266,0.05298,0.51636
MPU2,157.38931,24.10687,70.41222,0.05811,0.52124,0.25293
MPU1,122.49619,-21.44275,99.93130,0.05542,0.23560,0.33716
MPU2,122.44275,26.61069,72.27481,0.14771,0.65918,-0.02026
MPU1,86.06870,-41.67176,82.80916,0.09985,0.74146,0.24121
MPU2,64.94656,-13.84733,60.88550,0.21924,0.99414,-0.41064
MPU1,-12.09924,-27.56489,19.76336,0.67261,1.31836,-0.08105
MPU2,-56.06107,13.98473,2.44275,0.70728,1.18457,-0.37817
MPU1,-127.33588,41.41985,-58.74046,1.06860,1.22144,0.08545
MPU2,-153.87787,11.22137,-59.08397,0.62231,0.98291,-0.37695
MPU1,-156.16031,53.45802,-112.12214,0.49756,0.60449,0.30322
MPU2,-210.97710,4.53435,-84.96183,0.38330,0.63501,-0.03540
MPU1,-204.42747,72.36641,-136.87022,0.18042,0.13257,0.18066
MPU2,-238.29007,10.93130,-94.44275,0.09839,0.36768,0.25415
MPU1,-199.28244,103.26717,-107.22900,-0.23901,-0.13770,0.28125
MPU2,-252.41222,8.62595,-99.26717,-0.15430,0.24219,0.39282
MPU1,-225.73282,55.28244,-161.22900,-0.40747,-0.48218,0.38281
MPU2,-245.02290,41.77099,-88.42748,0.04150,0.03735,0.55371
MPU1,-229.11450,93.07633,-135.59541,-0.32227,-0.58765,0.20264
MPU2,-260.36642,-40.99237,-88.00000,-0.34399,-0.04956,0.81763
MPU1,-180.47328,71.51145,-101.75572,-0.60742,-1.02344,0.63696
MPU2,-229.81679,107.05344,-73.95420,0.00928,-0.19263,0.95117
MPU1,-235.34351,109.34351,-103.44275,-0.44922,-0.92163,0.08960
MPU2,-220.74809,-41.05344,-76.76336,-0.48438,-0.44409,0.62476
MPU1,-141.02290,9.83206,-118.13741,-0.72461,-1.26318,0.46631
MPU2,-202.65649,41.80153,-48.45802,-0.11548,-0.65283,1.20728
MPU1,-190.83969,106.77100,-62.16031,-0.44165,-1.14331,-0.04224
MPU2,-165.52672,-9.03817,-47.08397,-0.42407,-0.78296,0.61108
MPU1,-88.79389,-24.74046,-83.35878,-0.77319,-1.52026,0.51440
MPU2,-120.15267,-0.06107,-21.05343,-0.28638,-0.91919,1.18335
MPU1,-112.22137,28.32825,-33.06107,-0.60620,-1.25391,0.08154
MPU2,-91.14503,0.96183,-4.88550,-0.24194,-0.99341,0.87231
MPU1,-47.78626,38.49618,12.29771,-0.49438,-1.64160,0.30322
MPU2,-45.38931,73.35878,5.64885,-0.13062,-1.15015,1.30518
MPU1,-33.37405,33.78626,27.74809,-0.56592,-1.72095,0.32129
MPU2,15.06870,-10.47328,9.61832,-0.32886,-1.23706,1.05444
MPU1,48.54962,-32.41221,9.84733,-0.55542,-1.81396,0.45435
MPU2,72.62595,-26.45802,10.56489,-0.13379,-1.15527,1.36890
MPU1,97.74046,-35.02290,21.65649,-0.45142,-1.82617,0.52148
MPU2,142.83969,-18.19847,8.85496,-0.11182,-1.16846,1.34058
MPU1,163.23665,-27.91603,54.33588,-0.49927,-1.84131,0.44458
MPU2,193.54199,-3.23664,10.18321,-0.22290,-1.02002,1.33765
MPU1,196.56488,-34.24427,79.47328,-0.75195,-1.77051,0.35815
MPU2,243.19084,-11.63359,27.75573,-0.33179,-0.90039,1.19629
MPU1,230.00000,-29.70992,111.06107,-0.64722,-1.48682,0.14844
MPU2,256.06107,-12.94656,45.29771,-0.36743,-0.66504,1.01318
MPU1,247.61069,-101.97710,82.41985,-0.64648,-1.32080,0.29907
MPU2,271.11450,-52.48855,53.93893,-0.22827,-0.34717,0.77734
MPU1,235.32825,-86.32825,94.15267,-0.47778,-0.77881,0.01489
MPU2,244.16794,-58.88550,50.00000,-0.20898,0.01318,0.52148
MPU1,215.25191,-71.05344,104.88550,-0.31665,-0.28345,0.02832
MPU2,204.06107,26.35114,55.29771,-0.03979,0.24927,0.51807
MPU1,138.12213,-29.80153,124.65649,-0.22827,0.09717,0.04688
MPU2,141.58778,3.58779,56.16794,-0.14014,0.43433,0.26074
MPU1,132.95419,-41.00763,91.26717,-0.16772,0.08862,0.58154
MPU2,118.85497,1.52672,48.22901,0.02637,0.59058,0.46729
MPU1,119.23664,-20.99237,86.70992,-0.16577,0.18701,0.67383
MPU2,91.25191,6.61069,32.44275,0.06543,0.71265,0.43115
MPU1,106.94656,-40.46565,61.69466,-0.15308,0.20850,0.77441
MPU2,89.00764,10.19847,24.73282,0.10791,0.66748,0.34326
MPU1,115.42748,-36.03817,51.54962,-0.04272,0.37134,0.56201
MPU2,52.25954,1.66412,12.99237,0.16162,0.66113,0.27393
MPU1,31.58015,7.64122,15.80153,0.21826,0.60889,0.09424
MPU2,-1.57252,15.48092,-0.25954,0.08667,0.53662,0.20068
MPU1,-78.82442,37.18320,-23.49618,0.15503,0.55591,0.02246
MPU2,-57.74046,34.87023,-4.51908,0.13599,0.47876,0.02222
MPU1,-63.06107,25.35878,-5.91603,-0.11426,0.24023,0.44995
MPU2,-76.18320,5.77099,-3.37405,0.04053,0.43530,0.04639
MPU1,-124.12977,11.96947,-59.71756,0.11743,0.39502,0.23486
MPU2,-127.83206,4.79389,-22.93130,0.09863,0.59229,0.36572
MPU1,-116.80916,50.46565,-43.55725,-0.19556,-0.02710,0.60718
MPU2,-121.60305,17.37405,-30.58015,-0.01685,0.46948,0.40430
MPU1,-134.04581,41.45038,-72.77863,-0.20068,0.04248,0.58228
MPU2,-122.96183,20.62595,-46.53435,0.00342,0.50439,0.51465
MPU1,-95.14503,75.51145,-66.48092,-0.15601,-0.04150,0.78540
MPU2,-136.24428,10.35114,-68.88550,-0.11475,0.55176,0.68628
MPU1,-100.01527,57.57252,-84.15267,-0.62915,-0.33838,0.92261
MPU2,-100.82442,23.37405,-57.08397,-0.22656,0.38940,1.18726
MPU1,-71.50381,118.03053,-15.04580,-0.59497,-0.21680,0.96460
MPU2,-101.43511,41.25191,-65.35878,-0.32812,0.48755,1.25513
MPU1,-46.99237,56.43512,-42.55725,-1.03760,-0.76245,1.39819
MPU2,-31.51145,92.27481,-49.45038,-0.04907,0.31543,1.21460
MPU1,-40.95420,82.76336,-27.68702,-0.61426,-0.34570,0.89819
MPU2,-44.83969,-19.72519,-52.90076,-0.55859,0.27246,1.29980
MPU1,31.99237,25.92366,-10.93130,-1.17969,-0.80786,1.36719
MPU2,22.04580,11.96947,-38.09160,-0.33716,0.26099,1.23511
MPU1,43.59542,4.89313,-22.14504,-0.84375,-0.49463,1.00146
MPU2,33.78626,-5.90840,-26.67175,-0.32959,0.26587,1.07544
MPU1,52.08397,0.60305,-1.61832,-0.81470,-0.34692,0.84351
MPU2,36.04580,-37.28244,-20.18321,-0.43823,0.30835,1.06567
MPU1,54.49618,-23.58779,-8.24428,-0.86133,-0.38403,0.94971
MPU2,49.64885,-32.83969,-8.74809,-0.37207,0.39307,1.11548
MPU1,63.26717,-31.67175,9.31298,-0.90356,-0.23413,0.95703
MPU2,51.86259,-39.77099,5.51145,-0.40015,0.43237,1.04736
MPU1,67.99236,-54.66412,0.98473,-0.80566,-0.25464,0.91968
MPU2,54.85496,-57.81680,11.40458,-0.32593,0.44312,0.88525
MPU1,59.60305,-54.01527,6.58015,-0.62109,-0.04370,0.73560
MPU2,43.69466,-26.42748,11.63359,-0.18994,0.42969,0.72168
MPU1,40.51908,-23.80916,14.41221,-0.37939,0.05762,0.55151
MPU2,13.32824,-15.52672,2.90076,-0.15918,0.41382,0.60425
MPU1,10.65649,-16.36641,-4.29008,-0.37891,0.02515,0.56152
MPU2,1.41985,-27.25191,1.43511,-0.20142,0.35132,0.61792
MPU1,6.00000,-22.96947,-9.47328,-0.49609,-0.06763,0.68506
MPU2,0.88550,-13.55725,4.54962,-0.14209,0.36255,0.74023
MPU1,-1.89313,-16.18321,-0.06870,-0.50439,-0.06348,0.75757
MPU2,9.28244,-18.67175,14.12214,-0.21143,0.39429,0.85352
MPU1,9.19847,-31.74809,10.72519,-0.66138,-0.15771,1.00610
MPU2,29.26718,-17.57252,23.72519,-0.17163,0.47559,1.03345
MPU1,28.04580,-37.18320,28.07634,-0.60913,-0.16870,1.05762
MPU2,41.26717,-26.83969,31.55725,-0.12109,0.50635,1.03613
MPU1,46.88550,-64.47328,38.22137,-0.69336,-0.24487,1.21899
MPU2,73.98473,-36.38168,43.72519,-0.12061,0.54126,1.09717
MPU1,81.56489,-71.71756,70.90839,-0.70752,-0.21875,1.20776
MPU2,112.09161,-8.38168,53.83206,-0.08643,0.54395,0.89062
MPU1,116.98473,-44.91603,103.23664,-0.42480,-0.03760,0.86255
MPU2,120.29008,21.60305,67.23664,-0.01343,0.49146,0.57495
MPU1,137.16794,-49.98473,130.94656,-0.30200,0.07935,0.66675
MPU2,106.83969,35.86259,65.43511,0.12183,0.54663,0.29932
MPU1,116.33588,-29.21374,105.47328,0.28809,0.30176,0.40869
MPU2,69.16031,7.95420,53.19084,0.21240,0.57349,-0.01587
MPU1,88.43511,-50.57252,64.48855,0.26880,0.48438,0.33301
MPU2,10.45802,51.41985,24.91603,0.40259,0.66528,0.17896
MPU1,-20.54198,29.48855,2.53435,0.81445,0.66187,-0.00903
MPU2,-73.17558,28.90076,-27.46565,0.29297,0.70386,0.08496
MPU1,-112.70992,83.99236,-44.42748,0.38159,0.59570,0.06641
MPU2,-136.06107,38.73283,-51.43512,0.18701,0.59009,0.08667
MPU1,-157.11450,82.81680,-87.58015,0.10156,0.25439,0.29956
MPU2,-169.22137,42.83969,-64.71756,0.10376,0.46948,0.32056
MPU1,-175.54962,103.87786,-91.16031,-0.13818,0.03296,0.41724
MPU2,-182.62596,45.32824,-59.29771,-0.10303,0.32593,0.66113
MPU1,-155.10687,137.55725,-44.17557,-0.56348,-0.21240,0.62915
MPU2,-169.60306,107.77100,-60.24427,-0.18848,0.25806,0.69897
MPU1,-153.41985,109.94656,-73.59542,-0.83472,-0.44067,0.72021
MPU2,-139.35878,28.71756,-37.43512,-0.41260,0.06299,0.81079
MPU1,-120.34351,118.63359,-27.57252,-0.52173,-0.29150,0.46411
MPU2,-144.79390,72.00000,-45.43512,-0.36987,0.05396,0.96533
MPU1,-102.89313,97.59542,-27.09160,-0.97168,-0.66357,0.81128
MPU2,-121.49619,86.83969,-38.32061,-0.44653,-0.08862,1.04883
MPU1,-111.90076,82.59542,-31.33588,-1.03076,-0.67578,0.70801
MPU2,-88.59542,45.57252,-28.65649,-0.52441,-0.23242,1.09106
MPU1,-47.33588,110.12214,6.59542,-0.79883,-0.73389,0.64771
MPU2,-77.89313,119.64886,-33.63359,-0.50464,-0.20654,1.21143
MPU1,-56.79389,80.54962,-1.79389,-1.27759,-0.83154,0.73877
MPU2,-26.65649,16.79389,-20.48855,-0.73950,-0.35742,0.91211
MPU1,2.72519,5.93893,-22.93130,-0.96094,-0.78662,0.58740
MPU2,-13.78626,9.74046,-17.28244,-0.57764,-0.32910,1.13037
MPU1,-3.42748,13.29008,-4.11450,-1.02808,-0.75391,0.58594
MPU2,19.17557,-16.77863,-12.32061,-0.64478,-0.36182,1.02417
MPU1,48.88550,-23.06870,-17.66412,-0.86426,-0.81470,0.64185
MPU2,32.85496,-13.58779,-17.60305,-0.46753,-0.30640,1.07056
MPU1,39.58779,7.25191,3.85496,-0.79590,-0.65283,0.50439
MPU2,43.67939,5.69466,-23.22137,-0.46338,-0.27588,0.91919
MPU1,55.32824,7.93893,-0.60305,-0.69214,-0.57544,0.44385
MPU2,36.27481,-0.18321,-27.57252,-0.45630,-0.18774,0.79077
MPU1,36.82443,4.31298,1.27481,-0.77368,-0.38599,0.31421
MPU2,24.48855,-16.19847,-24.32061,-0.57495,-0.15454,0.71973
MPU1,33.00763,-13.25954,-26.04580,-0.76416,-0.41553,0.38257
MPU2,20.87023,-28.58015,-19.52672,-0.51611,-0.13135,0.74976
MPU1,25.14504,-10.86260,-15.46565,-0.76465,-0.35693,0.38159
MPU2,8.58015,-9.22137,-12.82443,-0.44189,-0.10425,0.82910
MPU1,17.23664,-4.99237,-7.16031,-0.76123,-0.43896,0.51416
MPU2,13.05344,-20.45802,-10.06107,-0.49292,-0.09546,0.84448
MPU1,18.53435,-20.32825,-11.00000,-0.81494,-0.43335,0.57739
MPU2,19.80153,-21.67939,-1.92366,-0.43481,-0.09985,0.95142
MPU1,29.45038,-14.85496,2.78626,-0.74951,-0.49463,0.64062
MPU2,25.05343,-5.64885,0.19847,-0.38989,-0.07227,0.95142
MPU1,31.34351,-3.45802,11.73282,-0.73779,-0.43042,0.57788
MPU2,29.60305,-1.51145,5.32824,-0.43286,-0.09424,0.83057
MPU1,32.85496,-14.85496,9.52672,-0.73364,-0.36157,0.46606
MPU2,17.17557,-13.89313,10.58015,-0.46826,-0.08667,0.79907
MPU1,6.32061,-25.20611,7.29008,-0.78369,-0.34326,0.44214
MPU2,8.16794,-21.28244,19.40458,-0.43115,-0.09058,0.83276
MPU1,0.44275,-33.75573,4.76336,-0.66821,-0.39746,0.51318
MPU2,-2.80916,-27.58779,17.45038,-0.36816,-0.05103,0.90332
MPU1,-10.54962,-32.20611,-2.96183,-0.66870,-0.42798,0.60303
MPU2,3.80153,-26.80916,15.63359,-0.34619,-0.07178,0.90405
MPU1,-1.87786,-25.58779,2.64885,-0.65308,-0.44092,0.64014
MPU2,1.69466,-8.09160,17.05343,-0.29297,-0.04077,0.98999
MPU1,-22.77863,-10.61069,0.82443,-0.55884,-0.37012,0.59375
MPU2,-14.99237,-61.19084,16.65649,-0.39062,0.04346,1.11694
MPU1,-19.71756,-47.26717,-12.03817,-0.88550,-0.66455,1.21313
MPU2,30.54962,19.23664,21.90840,-0.13989,0.13525,1.41455
MPU1,37.67939,4.93130,44.61832,-0.91699,-0.73511,1.26099
MPU2,85.29771,7.26718,40.39695,-0.42798,0.02100,1.37378
MPU1,98.08397,-51.45802,56.29008,-1.23950,-0.82104,1.14355
MPU2,153.16031,-56.22901,63.23664,-0.64185,-0.12476,1.27441
MPU1,174.93130,-70.81680,96.95420,-1.05176,-0.82837,0.79688
MPU2,188.00000,34.53435,73.26717,-0.30054,-0.03125,0.99561
MPU1,165.77863,-48.44275,122.57252,-0.67944,-0.48022,0.41846
MPU2,198.82443,11.60305,93.32825,-0.33667,0.00879,0.63403
MPU1,188.35115,-75.61832,139.44275,-0.58057,-0.43115,0.43164
MPU2,207.86259,-5.37405,92.77863,-0.21582,0.19604,0.52661
MPU1,196.91603,-82.43511,131.29007,-0.37476,-0.21143,0.40625
MPU2,200.51909,-8.24428,82.79389,-0.06982,0.36646,0.20850
MPU1,170.87022,-49.28244,118.46565,-0.03369,0.19678,0.09717
MPU2,155.86259,59.64885,73.35878,0.07471,0.54272,0.18018
MPU1,112.58015,8.56489,126.38168,0.07544,0.52881,0.12500
MPU2,95.87786,35.06870,57.57252,0.00537,0.72876,-0.15356
MPU1,63.30534,-44.14504,51.71756,0.13672,0.77393,0.12329
MPU2,19.03817,-8.77863,34.94656,0.17847,0.78760,-0.20435
MPU1,-10.70229,9.00000,33.98473,0.44409,0.98828,-0.18384
MPU2,-75.67939,11.64886,-9.58779,0.11548,0.81860,-0.34521
MPU1,-144.83969,2.03817,-89.93893,0.47974,0.98071,-0.26636
MPU2,-189.78625,-11.02290,-45.60305,0.17554,0.67920,-0.15356
MPU1,-233.92366,19.66412,-123.10687,0.30518,0.42773,-0.13965
MPU2,-268.58014,-39.95420,-66.62595,0.08960,0.45093,-0.05737
MPU1,-250.13741,21.30534,-194.93130,0.32690,0.04419,-0.13989
MPU2,-346.35114,-30.79389,-74.99236,0.16504,0.21338,0.31982
MPU1,-250.13741,131.70993,-126.09924,-0.05713,-0.78906,0.10083
MPU2,-330.80917,8.00000,-87.31298,-0.09692,-0.14502,0.68726
MPU1,-250.13741,61.80153,-148.93893,-0.57251,-1.36499,0.64355
MPU2,-251.34351,87.67939,-68.67175,-0.07080,-0.44336,0.92334
MPU1,-215.45038,144.35878,-67.09161,-0.76709,-0.99390,0.28687
MPU2,-227.93893,24.71756,-68.68702,-0.42383,-0.43359,0.74292
MPU1,-118.03817,49.00000,-91.22900,-0.67773,-1.25269,0.60376
MPU2,-191.43512,49.05344,-65.45038,-0.31494,-0.68164,1.02393
MPU1,-83.09924,114.70229,-71.09161,-0.70703,-1.16211,0.39624
MPU2,-158.47328,-32.30534,-62.54962,-0.57764,-0.79175,0.82422
MPU1,-25.80916,-47.12977,-84.87786,-0.95337,-1.25488,0.74927
MPU2,-105.26717,27.69466,-59.67939,-0.10571,-0.72046,1.59106
MPU1,0.30534,20.57252,-59.70992,-0.51221,-1.35645,0.96704
MPU2,-43.31298,14.30534,-64.87023,-0.19385,-0.94727,1.37451
MPU1,16.96947,66.74809,-28.06107,-0.56299,-1.15820,0.84985
MPU2,-13.17557,98.10687,-56.19847,-0.07422,-0.82397,1.25806
MPU1,8.81679,108.69466,-13.92366,-0.47290,-1.11499,0.88208
MPU2,18.27481,86.99236,-29.49618,-0.10107,-0.90381,1.46606
MPU1,34.47328,75.79389,27.45802,-0.82666,-1.46948,1.42554
MPU2,106.54962,48.13741,6.88550,-0.17041,-0.92847,1.65918
MPU1,113.34351,28.32061,38.29008,-0.71118,-1.58081,1.60400
MPU2,189.37404,53.32824,21.12977,-0.27539,-0.95068,1.89478
MPU1,126.45038,59.48092,88.16031,-1.04199,-1.44775,1.03516
MPU2,228.61069,54.68702,65.75572,-0.51514,-0.94604,1.45654
MPU1,158.86259,18.54962,148.19847,-1.16675,-1.52856,0.65771
MPU2,251.23665,25.14504,117.02290,-0.59009,-0.82788,1.09253
MPU1,155.93893,-84.35878,137.82443,-1.03442,-1.28149,0.35645
MPU2,243.20610,-45.92366,135.43512,-0.50391,-0.52979,0.88843
MPU1,175.94656,-90.70992,158.19847,-0.61353,-1.05273,0.22070
MPU2,240.22900,-11.45038,145.41985,-0.33228,-0.27710,0.59888
MPU1,170.54962,-125.80153,144.23665,-0.55347,-0.63843,0.16943
MPU2,215.43512,-37.17557,134.83969,-0.23535,0.02783,0.51538
MPU1,166.00000,-83.58015,160.67938,-0.35449,-0.33423,0.13208
MPU2,187.40459,-23.63359,128.35115,-0.18042,0.22070,0.28613
MPU1,137.00763,-91.59542,124.48092,-0.12671,-0.06616,0.15527
MPU2,163.90840,-1.34351,108.96183,0.03662,0.34033,0.19165
MPU1,138.70993,-1.12214,175.21375,0.06641,0.29761,-0.00610
MPU2,121.09924,76.10687,90.19847,0.07373,0.47070,-0.00928
MPU1,107.33588,-51.11450,130.28244,-0.08276,0.19092,0.33008
MPU2,100.68702,-7.86260,77.89313,0.10522,0.52979,-0.26270
MPU1,142.00000,-29.10687,121.40458,0.36060,0.48267,0.04102
MPU2,22.32061,15.69466,42.65649,0.21094,0.66211,-0.01929
MPU1,-3.24427,-24.83969,12.38168,0.55640,0.89600,-0.20581
MPU2,-66.65649,-2.39695,-2.58015,0.36743,0.73169,-0.18555
MPU1,-101.48855,10.64122,-48.58015,0.63135,0.75708,-0.03296
MPU2,-142.56488,7.63359,-47.66412,0.43311,0.66309,-0.16479
MPU1,-152.90076,47.23664,-106.58015,0.66724,0.52417,0.06738
MPU2,-207.49619,43.98473,-90.32061,0.40161,0.56567,0.02295
MPU1,-199.22900,83.99236,-145.80153,0.29028,0.17139,0.15430
MPU2,-260.56488,26.25954,-122.45802,0.10083,0.36426,0.26514
MPU1,-236.58778,122.22137,-162.53435,-0.07129,-0.27808,0.13354
MPU2,-267.72519,55.45038,-132.22900,-0.07422,0.14551,0.80225
MPU1,-234.64885,146.87787,-154.03053,-0.54199,-0.78149,0.58765
MPU2,-251.12978,48.88550,-134.74809,-0.28491,-0.05396,0.73828
MPU1,-230.99237,38.25191,-214.01527,-0.67969,-0.84375,0.66309
MPU2,-228.36641,2.48855,-117.52672,-0.23755,-0.27222,1.01514
MPU1,-183.54962,169.29007,-97.77100,-0.70435,-0.97729,0.34082
MPU2,-204.36641,46.48855,-113.74046,-0.53638,-0.30664,1.13525
MPU1,-172.86259,-19.96183,-185.67938,-1.05249,-1.37549,0.96680
MPU2,-161.14503,-99.64886,-78.09161,-0.28540,-0.52148,0.88696
MPU1,-122.24428,28.58779,-61.58779,-0.70044,-1.03174,0.28271
MPU2,-152.80916,-56.21374,-50.99237,-0.45874,-0.69141,0.89746
MPU1,-71.94656,-105.44275,-90.70992,-0.97192,-1.32422,0.63892
MPU2,-103.35878,-180.29007,0.07634,-0.33984,-0.91504,0.71387
MPU1,-37.84733,-105.66412,-26.64122,-0.43408,-0.83545,0.15625
MPU2,-101.03817,-72.80916,8.65649,-0.03564,-0.77368,1.01782
MPU1,-49.40458,-89.37405,-44.61069,-0.26123,-1.10767,0.62866
MPU2,-77.52672,-55.67939,-2.32061,0.09692,-0.85547,1.04053
MPU1,-57.19847,-16.37405,13.41985,-0.23022,-1.06445,0.57324
MPU2,-49.25191,-1.69466,-5.25191,0.02148,-0.79663,0.78198
MPU1,22.24427,-11.17557,1.81679,-0.13550,-1.37402,0.76318
MPU2,-9.78626,24.76336,-17.52672,0.20605,-0.90747,1.07935
MPU1,35.75573,60.33588,15.27481,0.03101,-1.19458,0.64014
MPU2,45.67939,72.56489,-20.00000,0.30469,-1.01855,1.15430
MPU1,88.26717,58.09160,21.95420,-0.22314,-1.46875,1.11133
MPU2,109.57252,67.63359,-17.81679,0.16797,-0.97852,1.35596
MPU1,135.58778,73.39695,43.25191,-0.30078,-1.45410,1.12891
MPU2,175.28244,98.03053,-5.60305,0.06030,-0.98486,1.40381
MPU1,174.11450,79.20611,72.01527,-0.50537,-1.39746,1.00610
MPU2,223.11450,103.87786,19.51145,-0.12500,-0.93164,1.37671
MPU1,201.00763,45.61069,105.72519,-0.78076,-1.38721,0.91602
MPU2,256.58014,63.54198,54.59542,-0.30640,-0.80200,1.16382
MPU1,207.80153,30.58779,131.89313,-0.67334,-1.14795,0.57129
MPU2,263.19083,51.63359,83.00764,-0.27881,-0.60498,0.93359
MPU1,219.78625,-35.35878,139.47328,-0.64673,-1.03662,0.53516
MPU2,255.16031,-0.85496,98.19847,-0.29370,-0.31860,0.64966
MPU1,191.86259,-43.03817,144.09160,-0.41504,-0.55249,0.19189
MPU2,225.86259,23.52672,103.29771,-0.17847,-0.04858,0.49487
MPU1,178.71756,-56.22137,135.61832,-0.33936,-0.27002,0.26904
MPU2,186.50381,-5.87786,101.03817,-0.22559,0.20630,0.48877
MPU1,142.27481,-26.65649,141.37404,-0.32202,-0.06885,0.24023
MPU2,157.63359,23.25191,104.90076,-0.14160,0.33179,0.35229
MPU1,122.45802,-75.96947,121.38931,-0.29614,0.06250,0.42334
MPU2,136.79390,-5.67939,95.80153,-0.07886,0.47705,0.27051
MPU1,114.32061,-37.25954,131.42747,-0.17358,0.28613,0.30469
MPU2,117.72519,3.58779,94.64122,0.00830,0.55737,0.11255
MPU1,107.88550,-63.61069,109.55725,-0.08740,0.45483,0.33813
MPU2,102.38168,-13.92366,93.54198,0.02856,0.65356,0.16724
MPU1,133.19084,-52.41985,129.97710,-0.14380,0.38208,0.45068
MPU2,93.54198,4.99237,99.83206,0.03271,0.71094,0.10474
MPU1,102.05344,-85.16031,108.96183,-0.02490,0.70044,0.14795
MPU2,60.21374,-56.19847,103.49619,0.12402,0.78394,-0.13721
MPU1,36.43512,-90.91603,91.05344,0.27197,0.84058,-0.00171
MPU2,12.24428,-35.11450,83.17558,0.56885,0.85547,-0.28784
MPU1,-54.72519,-59.32824,-3.77099,1.35229,1.19531,-0.08472
MPU2,-60.32061,-10.06107,-12.82443,1.13159,1.08179,-0.14795
MPU1,-127.07633,102.25954,-74.61069,1.67163,0.90576,0.07568
MPU2,-114.15267,106.44275,-96.59542,0.97534,0.90430,-0.16406
MPU1,-155.63359,146.38168,-117.70992,0.67480,0.68994,0.10742
MPU2,-153.57253,74.45802,-136.83969,0.37427,0.70972,-0.07983
MPU1,-188.07634,141.65649,-149.45801,0.11694,0.34741,0.11450
MPU2,-189.52672,83.37405,-140.93130,0.16724,0.53931,0.10229
MPU1,-196.03053,167.39694,-142.98473,-0.16455,0.15137,0.07202
MPU2,-221.54199,61.98473,-141.09924,-0.12134,0.40503,0.28760
MPU1,-201.68703,86.41222,-165.12213,-0.48096,-0.34912,0.50537
MPU2,-209.51144,22.56489,-117.45038,-0.20142,0.17529,0.34473
MPU1,-197.51909,99.29008,-141.79390,-0.57812,-0.22241,0.26294
MPU2,-221.49619,1.46565,-112.22900,-0.31299,0.20215,0.68774
MPU1,-146.38931,50.43512,-127.12977,-0.64355,-0.75610,0.80908
MPU2,-194.76335,0.79389,-96.85497,-0.33887,-0.08496,0.69092
MPU1,-178.12978,30.16031,-146.97710,-0.60571,-0.56738,0.38062
MPU2,-185.48091,5.02290,-82.97710,-0.17847,-0.24048,0.82764
MPU1,-109.19847,87.74046,-78.63359,-0.52759,-0.89893,0.55811
MPU2,-169.02290,9.45038,-80.97710,-0.47729,-0.39795,1.04248
MPU1,-106.64886,0.13740,-102.64886,-0.97388,-1.13086,0.79053
MPU2,-130.38168,-16.91603,-56.59542,-0.35327,-0.49609,1.01587
MPU1,-85.49619,52.57252,-55.18320,-0.49927,-0.80322,0.39478
MPU2,-132.64122,28.71756,-55.45038,-0.39771,-0.59302,1.07446
MPU1,-129.43512,40.45802,-78.49619,-0.62085,-0.96729,0.36719
MPU2,-111.64886,15.09924,-55.31298,-0.32495,-0.59863,0.79907
MPU1,-95.32825,48.38931,-61.32061,-0.51538,-1.08643,0.41675
MPU2,-104.21374,-24.51908,-61.19084,-0.31030,-0.71313,0.90381
MPU1,-130.42747,29.16031,-67.71756,-0.41772,-0.98413,0.13135
MPU2,-90.61069,17.06870,-42.50382,-0.10205,-0.89526,0.56519
MPU1,-51.74046,38.49618,-45.50382,-0.36841,-1.25220,0.27637
MPU2,-81.84733,-7.09924,-40.04580,-0.25708,-0.87378,0.88257
MPU1,-70.41985,31.36641,-22.58015,-0.62573,-1.14429,0.19360
MPU2,-44.76336,8.99237,-23.52672,-0.24365,-1.00342,0.90308
MPU1,-14.46565,9.02290,-5.69466,-0.63306,-1.32153,0.45557
MPU2,-7.81679,-8.29008,-1.03817,-0.20337,-0.98462,1.09204
MPU1,17.77099,-14.17557,2.82443,-0.57642,-1.49414,0.63770
MPU2,63.38931,-6.22901,11.37405,-0.13550,-1.02930,1.09082
MPU1,77.73283,-17.51145,33.67939,-0.63428,-1.49219,0.56860
MPU2,115.84733,6.67176,26.35114,-0.18823,-1.04932,1.30859
MPU1,126.10687,-21.45038,61.18320,-0.73120,-1.71265,0.64673
MPU2,190.00000,-6.53435,41.67939,-0.26636,-1.06665,1.11646
MPU1,186.52672,-62.56488,67.16031,-0.71606,-1.65942,0.45093
MPU2,230.16794,-29.40458,46.03053,-0.25732,-0.93091,1.14673
MPU1,212.51909,-54.17557,99.16794,-0.62524,-1.51855,0.34204
MPU2,270.70230,-57.35878,47.38931,-0.33789,-0.77856,0.92041
MPU1,250.12978,-115.83206,62.00763,-0.58472,-1.45215,0.33203
MPU2,278.06107,-34.00000,45.87786,-0.09155,-0.51733,1.00366
MPU1,241.18321,-53.51908,113.97710,-0.39795,-0.92871,0.11816
MPU2,261.98474,-24.24427,54.06107,-0.16479,-0.23193,0.67822
MPU1,250.12978,-80.99236,97.09924,-0.41577,-0.79175,0.33887
MPU2,239.25191,-22.56489,61.48092,-0.06641,0.03052,0.64844
MPU1,191.14503,-34.97710,130.06870,-0.32935,-0.23486,0.13867
MPU2,217.51144,11.63359,64.09161,-0.11670,0.21362,0.43750
MPU1,210.80916,-50.22137,122.31298,-0.31885,-0.23242,0.43604
MPU2,215.63359,-1.61832,71.67939,-0.12061,0.31787,0.30981
MPU1,190.74809,-8.67939,139.30534,-0.14331,0.15552,0.09595
MPU2,186.32062,64.54962,78.00000,0.02881,0.45996,0.12305
MPU1,171.16031,-62.65649,105.44275,-0.15674,0.26367,0.28931
MPU2,144.16794,-34.51908,83.46565,0.01733,0.59595,-0.15430
MPU1,107.54198,-49.70992,100.93130,0.16113,0.78320,-0.10132
MPU2,59.90840,2.74809,67.64886,0.19653,0.84937,-0.14160
MPU1,15.11450,-41.25954,39.27481,0.47388,0.93237,0.07275
MPU2,-4.16794,1.64885,32.18320,0.60303,0.95825,-0.39453
MPU1,-54.67939,14.54962,-5.23664,1.00830,1.26050,0.04028
MPU2,-85.78626,50.65649,-33.34351,0.73242,1.05200,-0.15698
MPU1,-130.61832,99.12214,-50.12977,0.68359,0.92261,0.18018
MPU2,-138.94656,50.58015,-67.22137,0.37524,0.86597,-0.18140
MPU1,-153.13741,86.25954,-84.87786,0.19312,0.57642,0.32129
MPU2,-180.70229,91.34351,-77.92367,0.20044,0.69751,0.20654
MPU1,-198.14503,106.97710,-83.63359,-0.17041,0.25830,0.30542
MPU2,-199.61832,13.35878,-76.70229,-0.03491,0.52368,0.12134
MPU1,-177.90076,99.17558,-92.99236,-0.17310,-0.01172,0.37183
MPU2,-224.42747,82.56489,-74.03053,-0.06543,0.33203,0.59839
MPU1,-219.61069,56.22137,-112.90076,-0.53296,-0.37085,0.53003
MPU2,-215.86259,-4.83969,-66.80916,-0.20410,0.09668,0.59692
MPU1,-186.87022,103.58778,-82.93893,-0.48633,-0.49731,0.39819
MPU2,-207.12978,46.06107,-63.46565,-0.31934,0.07568,0.90674
MPU1,-149.06870,43.96183,-81.56489,-0.67725,-0.93506,0.93579
MPU2,-164.01527,6.12214,-54.99237,-0.28027,-0.09790,0.84814
MPU1,-137.97710,56.22901,-73.81680,-0.58447,-0.64062,0.45776
MPU2,-159.19084,17.35878,-52.13741,-0.27490,-0.20483,1.00977
MPU1,-96.00000,36.51145,-55.04580,-0.64087,-0.92603,0.71289
MPU2,-142.48856,-1.46565,-49.11450,-0.34961,-0.33960,1.01001
MPU1,-129.22137,55.96947,-70.54962,-0.54907,-0.81958,0.41113
MPU2,-138.09160,30.68702,-52.27481,-0.25000,-0.40137,1.04468
MPU1,-136.89313,66.78626,-66.84733,-0.42261,-0.90112,0.36963
MPU2,-133.55725,22.09160,-55.49618,-0.22168,-0.54614,0.71655
MPU1,-119.65649,29.22137,-104.74046,-0.41772,-1.05493,0.28027
MPU2,-138.22900,-1.38931,-60.50382,-0.21777,-0.58740,0.91992
MPU1,-89.61069,60.41221,-60.07634,-0.42358,-1.18652,0.32471
MPU2,-120.12214,17.45038,-62.51908,-0.28809,-0.75464,0.79541
MPU1,-101.39695,54.95420,-71.10687,-0.56494,-1.22559,0.06201
MPU2,-96.12214,17.57252,-45.87786,-0.29224,-0.91333,0.85107
MPU1,-44.12977,44.91603,-21.61832,-0.62964,-1.34692,0.32983
MPU2,-48.29008,8.56489,-41.22137,-0.23389,-0.94189,0.85352
MPU1,-15.45802,44.42748,-14.67939,-0.43188,-1.21240,0.24341
MPU2,-14.10687,55.66412,-31.54198,-0.15674,-0.95190,1.06665
MPU1,0.75573,55.50382,15.31298,-0.58716,-1.33984,0.45557
MPU2,50.16794,23.57252,-34.65649,-0.19531,-0.95117,1.09180
MPU1,99.61832,61.80916,46.96947,-0.58716,-1.68994,0.64600
MPU2,131.84734,110.65649,-2.87023,-0.21680,-1.15234,1.33911
MPU1,110.75572,14.58015,84.35114,-1.11597,-1.54785,0.35352
MPU2,160.68703,-11.28244,51.25191,-0.53613,-1.09473,1.11353
MPU1,162.22900,-59.06870,87.05344,-0.78882,-1.75562,0.45874
MPU2,213.69466,2.80916,69.17558,-0.30200,-0.92749,1.13403
MPU1,172.57253,-55.16031,119.03817,-0.72241,-1.40918,0.15430
MPU2,234.24428,-5.54198,88.41222,-0.42334,-0.85938,0.95972
MPU1,219.60306,-74.34351,133.75572,-0.69165,-1.51611,0.21631
MPU2,256.87024,-4.62595,99.80153,-0.32788,-0.63599,0.79761
MPU1,207.33588,-87.93893,132.68703,-0.55176,-1.02197,-0.00146
MPU2,244.51909,-14.53435,104.58015,-0.27124,-0.36597,0.67603
MPU1,200.36641,-76.88550,147.16031,-0.42285,-0.74512,0.11401
MPU2,224.99237,-4.64122,104.96183,-0.20703,-0.01343,0.59521
MPU1,177.62596,-68.14503,140.83969,-0.29663,-0.35083,0.28198
MPU2,203.51144,-8.94656,94.97710,0.00513,0.35962,0.35986
MPU1,167.13741,-75.11450,123.58778,-0.27979,-0.11328,0.37451
MPU2,190.12213,-17.14504,86.25954,-0.12988,0.36279,0.38672
MPU1,165.99237,-57.54962,123.84733,-0.29004,-0.03613,0.41699
MPU2,179.25191,11.26718,81.25191,-0.04468,0.48389,0.33228
MPU1,159.71756,-50.29771,122.80153,-0.20020,0.16113,0.36060
MPU2,163.66412,-2.42748,87.86259,-0.08789,0.54077,0.11890
MPU1,176.71756,-80.77100,120.41222,-0.25952,0.27148,0.33740
MPU2,141.54199,-33.02290,91.28244,0.02612,0.70532,-0.04834
MPU1,123.40458,-70.50381,100.69466,0.13330,0.72217,0.06396
MPU2,67.58778,6.29008,68.58015,0.33545,0.83667,-0.21582
MPU1,10.55725,-4.63359,53.35878,0.67749,1.10474,-0.03711
MPU2,-26.59542,22.59542,10.58015,0.55420,0.97754,-0.26733
MPU1,-72.24428,23.41221,-32.93130,0.87524,1.04761,0.22876
MPU2,-102.91603,48.45802,-46.71756,0.61621,0.95654,-0.25562
MPU1,-154.88550,74.73283,-91.41985,0.52832,0.91382,0.10962
MPU2,-172.35115,37.03817,-82.68702,0.25317,0.85327,-0.02808
MPU1,-182.03816,97.01527,-99.41985,0.05151,0.42847,0.28320
MPU2,-204.59541,30.18321,-88.56489,0.10596,0.64355,0.08667
MPU1,-206.49619,78.92367,-133.24428,-0.11621,0.12695,0.36914
MPU2,-214.67175,46.74809,-83.14503,0.07422,0.45898,0.30420
MPU1,-179.59541,72.22900,-111.32825,-0.41382,-0.19019,0.61450
MPU2,-209.64885,-14.30534,-86.54962,-0.22559,0.37329,0.58032
MPU1,-173.43512,71.59542,-98.11450,-0.62549,-0.36157,0.53418
MPU2,-205.08397,14.76336,-66.00000,-0.25977,0.18018,0.77563
MPU1,-179.19084,22.84733,-143.47328,-0.39331,-0.58911,0.75244
MPU2,-194.01527,-11.92366,-67.96947,-0.09399,0.08716,0.82520
MPU1,-164.39694,46.10687,-98.10687,-0.67456,-0.64038,0.47412
MPU2,-199.09924,-37.66412,-52.27481,-0.35669,-0.07056,0.95337
MPU1,-156.11450,11.27481,-100.73283,-0.51294,-0.76929,0.62134
MPU2,-181.77100,-5.49618,-39.93893,-0.10864,-0.22510,0.79590
MPU1,-188.87787,4.51145,-125.77863,-0.47876,-0.89502,0.25342
MPU2,-207.98473,-50.32061,-37.69466,-0.36816,-0.42261,1.11133
MPU1,-232.12978,-14.93893,-135.80916,-0.33105,-1.00562,0.17725
MPU2,-212.54962,-17.70992,-13.61832,0.00220,-0.55664,0.75781
MPU1,-207.64885,-15.58015,-72.56489,-0.39502,-1.30005,0.21973
MPU2,-173.93893,-61.80153,-6.93130,-0.22534,-0.73486,0.69800
MPU1,-159.82443,-45.66412,-103.45038,-0.09985,-1.14893,0.07617
MPU2,-194.93130,-51.37405,-10.18321,0.02612,-0.76660,0.84692
MPU1,-195.58778,-23.51908,-6.27481,-0.50732,-1.23096,-0.22900
MPU2,-129.25191,28.19847,13.63359,-0.12329,-0.98242,0.57227
MPU1,-100.61069,-12.09924,-37.27481,-0.14868,-1.42847,0.03198
MPU2,-113.20611,-32.97710,-3.86260,-0.04712,-0.94629,0.67896
MPU1,-104.22900,3.11450,-26.26718,-0.16797,-1.08325,-0.21167
MPU2,-67.05344,-2.07634,-13.20611,0.06958,-1.02002,0.46606
MPU1,-17.45038,0.22901,-13.67176,-0.06567,-1.47070,0.02368
MPU2,-25.25191,-13.20611,-15.26718,0.15601,-1.15723,0.77539
MPU1,0.53435,33.77099,0.99237,0.16138,-1.46362,-0.10669
MPU2,42.16794,60.19847,-26.24427,0.35327,-1.29370,0.88965
MPU1,135.57253,77.71756,75.20611,-0.08789,-2.00000,0.35010
MPU2,127.23664,100.22900,-15.61832,0.14380,-1.29785,1.19141
MPU1,143.19084,57.28244,72.29008,-0.19189,-1.81494,0.12695
MPU2,190.88550,51.64885,1.08397,0.02686,-1.35669,0.96948
MPU1,221.34351,11.80916,82.21374,-0.25757,-1.97778,0.19043
MPU2,233.28244,23.84733,8.88550,-0.08154,-1.14526,1.10278
MPU1,227.68703,-7.37405,81.94656,-0.25952,-1.70239,0.02246
MPU2,258.03055,24.77863,23.17557,-0.07715,-1.03125,0.94092
MPU1,244.03053,-4.95420,108.49619,-0.24731,-1.50732,-0.03809
MPU2,267.29770,16.71756,31.74046,-0.18188,-0.79102,0.80420
MPU1,250.12978,-38.36641,91.87786,-0.28638,-1.28613,-0.01270
MPU2,264.03055,-12.82443,30.71756,-0.13818,-0.48486,0.68359
MPU1,243.88550,-22.40458,97.03817,-0.17065,-0.95142,0.02026
MPU2,252.51909,17.70992,30.83969,-0.03516,-0.23657,0.61035
MPU1,233.27481,-30.20611,86.75572,-0.24341,-0.73804,0.19849
MPU2,245.48091,-7.87786,22.13741,-0.11768,-0.02124,0.44263
MPU1,226.32062,-15.73282,69.69466,-0.20776,-0.45068,0.11011
MPU2,217.86259,6.44275,25.22137,-0.11401,0.10107,0.48657
MPU1,199.19847,4.80916,93.00000,-0.32495,-0.17383,0.14893
MPU2,198.83969,25.43511,35.77099,-0.16504,0.33740,0.33887
MPU1,201.32062,-21.61069,64.35878,-0.30542,-0.08472,0.39722
MPU2,180.06107,-18.71756,45.26717,-0.11182,0.49658,0.14844
MPU1,178.43512,-5.18321,84.01527,-0.17358,0.35815,0.32324
MPU2,131.81679,32.27481,49.19084,0.20508,0.82544,0.08496
MPU1,137.28244,1.74809,94.05344,0.11816,0.90771,0.34814
MPU2,43.16031,-10.10687,19.43511,0.37158,1.16577,-0.45654
MPU1,-0.06870,-49.65649,-38.75573,0.62427,1.63477,-0.13623
MPU2,-90.29008,-10.25954,-40.00000,0.47412,1.12793,-0.11865
MPU1,-135.47328,54.87786,-71.48855,0.31445,1.02026,0.07690
MPU2,-157.08397,49.43512,-51.63359,0.15137,0.82300,-0.07129
MPU1,-195.16031,36.22901,-98.23664,-0.29321,0.47656,0.25220
MPU2,-188.54962,18.85496,-39.51145,-0.04370,0.66748,0.06665
MPU1,-174.58778,37.42748,-48.29008,-0.40430,0.18604,0.36548
MPU2,-209.49619,28.47328,-31.08397,-0.17920,0.49463,0.44580
MPU1,-214.63359,16.22901,-73.19847,-0.41187,-0.17847,0.50024
MPU2,-205.43512,27.29771,-20.74809,-0.16846,0.22290,0.58252
MPU1,-184.03053,-1.06107,-62.29771,-0.45581,-0.45801,0.70166
MPU2,-202.09160,-9.16031,-31.72519,-0.15576,0.22290,0.85010
MPU1,-204.00000,49.58015,-79.09924,-0.34424,-0.50586,0.39868
MPU2,-207.54199,14.65649,-30.19847,-0.16455,-0.05615,0.71143
MPU1,-183.47328,-0.74809,-95.64122,-0.23071,-0.82373,0.67529
MPU2,-199.26718,-13.67939,-52.12214,-0.14062,-0.14209,1.02197
MPU1,-195.19084,49.11450,-67.95420,-0.59668,-0.88965,0.28491
MPU2,-186.76335,28.99237,-25.93893,-0.08301,-0.42017,0.79761
MPU1,-146.30534,26.66412,-85.59542,-0.03638,-1.12695,0.55371
MPU2,-182.73282,-30.03053,-54.45802,-0.24487,-0.47095,0.98047
MPU1,-156.03816,4.81679,-59.93893,-0.88770,-1.20654,0.19312
MPU2,-141.41985,-23.29771,-22.12214,-0.35645,-0.72021,0.89136
MPU1,-93.16794,0.24427,-52.54198,-0.33496,-1.12866,0.34717
MPU2,-134.16794,-8.42748,-28.58015,-0.00024,-0.59839,0.85107
MPU1,-93.78626,-44.80916,16.46565,-0.75146,-0.95532,0.18262
MPU2,-118.65649,-65.19084,-14.21374,-0.46924,-0.89575,0.70410
MPU1,-26.45802,-48.27481,-43.23664,-0.36206,-1.25708,0.33301
MPU2,-109.31298,-46.80916,-13.89313,-0.01831,-0.83569,0.91406
MPU1,-90.15267,-28.64122,4.77099,-0.43384,-0.97437,0.11621
MPU2,-93.72519,-34.82443,-8.38168,-0.02808,-0.94482,0.78003
MPU1,-11.79389,-29.42748,-42.45802,-0.05811,-1.54175,0.58789
MPU2,-49.32824,-12.83969,-26.91603,0.13037,-1.00024,1.05127
MPU1,-20.29008,22.72519,-3.75573,-0.41602,-1.26978,0.35864
MPU2,11.43511,40.56488,-16.62595,0.06812,-1.06299,1.00952
MPU1,51.87023,32.38931,16.77099,-0.41724,-1.51392,0.71338
MPU2,79.75572,42.77863,-13.05344,0.09399,-1.04492,1.25391
MPU1,104.35878,30.77863,35.36641,-0.43408,-1.55151,0.75513
MPU2,140.13741,51.93893,-1.28244,0.03931,-1.01489,1.14697
MPU1,136.20610,10.20611,49.22137,-0.51929,-1.46460,0.59985
MPU2,181.28244,29.38931,9.60305,-0.05737,-1.00586,1.15942
MPU1,178.07634,-2.87023,61.65649,-0.56030,-1.56494,0.55542
MPU2,217.74046,30.74809,24.47328,-0.15479,-0.91113,0.97583
MPU1,178.93893,4.51908,82.43511,-0.52490,-1.24292,0.23584
MPU2,231.06870,32.33588,33.84733,-0.23413,-0.78687,0.87329
MPU1,220.19084,-21.87023,95.06107,-0.64502,-1.24609,0.33325
MPU2,234.93130,33.41985,47.34351,-0.22192,-0.56641,0.90381
MPU1,191.66412,-22.50382,102.09161,-0.52905,-0.89893,0.23633
MPU2,231.06870,-6.83969,51.26717,-0.26880,-0.31543,0.60962
MPU1,192.76335,-50.92366,74.77100,-0.34814,-0.62793,0.23242
MPU2,216.90076,14.03053,43.63359,-0.08154,-0.13623,0.78271
MPU1,194.34351,-13.75572,110.96947,-0.26538,-0.54785,0.43042
MPU2,212.59541,2.88550,32.99237,-0.15894,0.10693,0.49365
MPU1,188.59541,-36.02290,67.08397,-0.37280,-0.35156,0.42139
MPU2,206.62596,28.10687,37.70992,-0.02319,0.22729,0.53027
MPU1,181.32825,7.65649,106.10687,-0.17163,-0.00293,0.34937
MPU2,174.04581,19.84733,41.06870,-0.13525,0.51465,0.19604
MPU1,165.74046,-37.41221,85.19847,-0.34351,0.27759,0.39404
MPU2,146.65649,12.36641,66.77863,0.01392,0.64062,0.15527
MPU1,242.99237,-97.36641,132.87787,-0.46680,0.18018,0.63843
MPU2,98.51908,-47.74046,87.12977,-0.07666,0.93408,0.04736
MPU1,62.77099,-34.73283,95.72519,0.39429,1.46802,-0.34839
MPU2,10.41221,40.48855,32.96183,0.33276,0.99951,-0.13501
MPU1,-10.29771,-19.99237,-4.95420,0.73169,1.06030,0.07983
MPU2,-65.06870,-28.90076,-29.98473,0.28125,0.97729,-0.10913
MPU1,-132.39694,51.91603,-72.42748,0.48242,1.06445,-0.03760
MPU2,-114.99236,65.81680,-53.09924,0.18677,0.84326,-0.02002
MPU1,-157.06870,41.64122,-63.47328,-0.28076,0.66138,0.29224
MPU2,-145.17557,-73.74046,-51.14504,-0.30957,0.77466,0.10059
MPU1,-167.07634,77.19847,-54.52672,-0.25708,0.47729,0.42944
MPU2,-164.13741,102.91603,-41.11450,0.13501,0.71045,0.31348
MPU1,-206.67938,58.89313,-94.80153,-0.22241,0.11914,0.56934
MPU2,-167.45038,-35.28244,-41.78626,-0.24854,0.45752,0.43164
MPU1,-134.51909,51.09924,-40.05344,-0.47632,-0.02661,0.66260
MPU2,-183.46565,-44.45802,-38.30534,-0.09644,0.41724,0.50146
MPU1,-194.19084,36.36641,-101.41222,-0.16089,-0.29004,0.57739
MPU2,-170.88550,86.97710,-34.50382,0.02295,0.11572,0.91162
MPU1,-155.41222,85.93893,-12.00763,-0.63647,-0.31543,0.56079
MPU2,-196.33588,-40.48855,-44.15267,-0.34595,0.12842,0.70068
MPU1,-187.22137,12.22137,-91.94656,-0.44922,-0.70068,0.50659
MPU2,-182.30534,21.49618,-32.35115,-0.05811,-0.18604,0.80396
MPU1,-210.41222,34.06107,-36.75573,-0.45288,-0.38062,0.18994
MPU2,-227.61832,-67.60305,-33.83206,-0.36890,-0.34985,0.93799
MPU1,-178.45038,-43.68702,-51.40458,-0.72314,-1.34033,0.66211
MPU2,-178.64122,-3.09924,-27.28244,-0.09521,-0.46777,0.96655
MPU1,-149.19084,84.69466,-47.41985,-0.15601,-0.88086,0.16626
MPU2,-174.87022,-28.97710,-43.92366,-0.28101,-0.68091,0.78003
MPU1,-115.04580,-4.75573,-78.25954,-0.82788,-1.39355,0.48633
MPU2,-146.58015,-17.63359,-26.80916,-0.12524,-0.79785,0.97729
MPU1,-103.93130,33.00000,-44.08397,-0.42651,-1.05298,0.10767
MPU2,-138.93130,-33.87786,-29.46565,-0.12329,-0.83423,0.70703
MPU1,-83.44275,-12.80916,-52.72519,-0.39282,-1.14966,0.22021
MPU2,-138.38168,-20.13741,-29.86259,-0.02393,-0.89087,0.71387
MPU1,-87.93130,-6.32824,-52.79389,-0.41309,-1.19214,0.12158
MPU2,-127.17558,-64.06107,-23.86259,0.00049,-1.06030,0.63257
MPU1,-58.75573,-23.97710,-25.94657,-0.36328,-1.44092,0.36182
MPU2,-48.45802,38.47328,-26.35114,0.10571,-1.21899,0.98242
MPU1,42.50382,43.28244,4.31298,-0.63379,-1.60181,0.63623
MPU2,31.38931,34.24427,-1.63359,0.02588,-1.15259,0.98096
MPU1,64.67939,13.42748,13.92366,-0.38550,-1.29956,0.51733
MPU2,68.62595,20.16794,6.00000,0.10059,-0.99487,0.95020
MPU1,74.80153,0.56489,34.52672,-0.38550,-1.31738,0.60083
MPU2,124.59542,37.08397,12.79389,0.04541,-1.05786,1.01294
MPU1,133.30534,-14.56489,39.33588,-0.55371,-1.46558,0.66943
MPU2,169.55725,21.28244,21.00763,-0.08032,-1.04858,1.14160
MPU1,147.04581,-33.59542,63.94656,-0.75342,-1.52856,0.62305
MPU2,221.57253,11.87786,27.95420,-0.18970,-1.03931,1.12720
MPU1,213.48091,-31.81679,58.96183,-0.64111,-1.53296,0.50610
MPU2,255.03816,5.16031,34.53435,-0.17798,-0.93530,1.10645
MPU1,228.49619,-51.44275,65.38168,-0.63159,-1.39526,0.39087
MPU2,276.35114,-7.74046,44.04580,-0.20386,-0.80200,0.93945
MPU1,249.54962,-65.65649,74.93130,-0.57617,-1.23584,0.31079
MPU2,275.16031,9.17557,53.12977,-0.15576,-0.47656,0.87671
MPU1,220.32062,-39.19084,124.13741,-0.38550,-0.63745,0.14111
MPU2,250.45801,1.49618,68.88550,-0.13232,-0.12476,0.55786
MPU1,206.04581,-92.17558,86.51908,-0.30225,-0.53101,0.31445
MPU2,220.64122,-6.50382,68.24428,-0.08691,0.11426,0.59180
MPU1,157.44275,-42.86259,115.72519,-0.31396,-0.08862,0.22021
MPU2,184.41222,1.29771,82.87023,-0.06641,0.24683,0.42529
MPU1,161.14503,-112.13741,54.45802,-0.18164,-0.21826,0.55371
MPU2,180.30534,-72.38168,67.95420,-0.05908,0.42505,0.28589
MPU1,155.09924,-68.31298,74.16794,-0.12769,0.25586,0.30273
MPU2,144.77863,10.45802,68.76336,0.16260,0.59058,0.29028
MPU1,107.16794,-30.47328,77.48092,0.18066,0.44385,0.32910
MPU2,98.67175,71.00764,63.05344,0.46460,0.76904,-0.12280
MPU1,92.62595,-13.13740,75.53435,0.63965,0.81592,0.29932
MPU2,13.86260,-12.27481,19.38931,0.45654,1.00220,-0.33496
MPU1,-47.45802,6.93893,-41.84733,0.93823,1.15723,0.06055
MPU2,-73.29771,1.92366,-29.75573,0.48706,0.89673,-0.05273
MPU1,-88.61832,54.48092,-43.30534,0.28101,0.69019,0.39526
MPU2,-113.84733,48.01527,-31.67939,0.22632,0.80640,0.05884
MPU1,-145.17557,41.53435,-61.25191,-0.05127,0.61743,0.34106
MPU2,-147.23665,-30.99237,-32.27481,0.05908,0.75635,0.21558
MPU1,-124.15267,69.52672,-35.26717,-0.02905,0.21533,0.79199
MPU2,-139.66412,86.41222,-29.26718,0.20728,0.67358,0.37256
MPU1,-165.02290,-3.14504,-87.94656,-0.17456,0.13794,0.75488
MPU2,-177.09924,-3.00763,-35.17557,0.20801,0.48193,0.86914
MPU1,-158.67938,76.03053,-31.45802,-0.19116,-0.30396,0.89453
MPU2,-149.40459,47.05344,-36.13741,-0.01270,0.39551,0.47900
MPU1,-157.26718,73.74809,-55.97710,-0.28516,-0.01392,0.35938
MPU2,-186.12213,32.15267,-30.00000,-0.18140,0.19507,0.59424
MPU1,-155.33588,39.07634,-54.62595,-0.51123,-0.46899,0.46997
MPU2,-184.79390,2.29008,-30.56489,-0.23340,-0.01343,0.61182
MPU1,-162.91603,74.97710,-55.06870,-0.34424,-0.53052,0.30322
MPU2,-182.48856,55.95420,-27.69466,-0.21191,-0.19922,0.66968
MPU1,-99.83969,26.51908,-56.83206,-0.60815,-0.76562,0.55811
MPU2,-181.61832,-17.75573,-28.45802,-0.15869,-0.19067,0.78589
MPU1,-107.33588,70.17558,-40.53435,-0.19971,-0.74976,0.46289
MPU2,-164.87022,32.83969,-46.67176,-0.16406,-0.36157,0.65942
MPU1,-61.26717,-0.66412,-61.18320,-0.61841,-0.84888,0.68408
MPU2,-157.16031,61.29771,-66.62595,-0.12280,-0.43188,1.33496
MPU1,-66.05344,58.90840,-47.31298,-0.44360,-1.00684,0.74341
MPU2,-126.79389,18.68702,-64.38168,-0.14722,-0.73071,1.24463
MPU1,-57.19847,44.47328,12.37405,-0.70850,-1.17432,1.09717
MPU2,-71.25191,100.53435,-44.06107,0.02563,-0.86475,1.81592
MPU1,11.36641,75.66412,-3.65649,-0.62207,-1.79370,1.65381
MPU2,32.77863,65.87786,-16.00000,-0.25122,-1.01147,1.75757
MPU1,39.88550,39.16031,58.85496,-1.22656,-1.21191,1.28247
MPU2,104.30534,-6.27481,40.21374,-0.53882,-0.87793,1.48682
MPU1,50.80153,-49.79389,49.33588,-1.04175,-1.27856,1.14648
MPU2,152.38168,-29.89313,66.83969,-0.36011,-0.84326,1.47949
MPU1,77.96947,-54.49618,49.57252,-0.88843,-1.19507,0.87183
MPU2,173.19084,-63.14504,78.16794,-0.40479,-0.70679,1.32861
MPU1,87.47328,-84.67175,45.67939,-0.80688,-1.19385,0.77637
MPU2,183.23665,-56.32061,72.35114,-0.26123,-0.47876,1.19824
MPU1,106.82442,-59.02290,56.03053,-0.68213,-0.96606,0.49341
MPU2,181.52672,-73.81680,72.13741,-0.25537,-0.26636,0.76172
MPU1,125.45038,-135.35115,-3.01527,-0.37476,-0.76147,0.48340
MPU2,177.43512,-71.83206,54.30534,-0.04297,-0.07422,0.74292
MPU1,78.37405,-59.58015,34.66412,-0.25537,-0.25391,0.16333
MPU2,128.83969,-65.26717,40.45802,-0.09058,0.07935,0.41016
MPU1,75.31298,-74.19847,-26.80153,0.05127,-0.26538,0.32739
MPU2,103.72519,-35.61832,17.89313,0.06836,0.18286,0.40771
MPU1,57.61069,-18.24427,29.04580,-0.13940,0.06299,0.21948
MPU2,81.72519,12.91603,21.69466,0.07959,0.25098,0.15259
MPU1,65.61069,-17.07634,15.71756,0.02856,0.03467,0.36816
MPU2,51.84733,-5.90840,4.73282,0.10352,0.35474,0.20605
MPU1,25.36641,17.59542,18.68702,0.04517,0.29541,0.18457
MPU2,5.67939,21.05343,2.51908,0.10669,0.37817,0.13647
MPU1,-5.19084,15.38168,-9.45802,0.05713,0.20923,0.30054
MPU2,-50.27481,1.70992,-8.56489,0.10400,0.45288,0.25977
MPU1,-74.12214,25.38168,-11.45038,-0.08936,0.24829,0.36255
MPU2,-94.90076,40.45802,-11.38931,0.12793,0.43848,0.41968
MPU1,-90.89313,41.43512,-8.48855,-0.07544,-0.08789,0.56079
MPU2,-116.59542,17.69466,-25.08397,0.01001,0.35205,0.48828
MPU1,-118.38931,35.93130,-33.34351,-0.21118,-0.16650,0.44800
MPU2,-141.90840,36.90076,-27.34351,0.05908,0.19165,0.71143
MPU1,-106.61832,68.12977,-10.13740,-0.19043,-0.45874,0.59326
MPU2,-140.04581,62.10687,-39.25191,-0.00415,0.16357,0.86279
MPU1,-99.95420,86.86259,-8.73282,-0.40332,-0.65234,0.57642
MPU2,-145.61832,23.34351,-43.00763,-0.18555,-0.05859,0.80957
MPU1,-86.90076,42.70229,-52.74809,-0.33594,-0.97632,0.76709
MPU2,-110.91603,42.00000,-59.31298,0.05786,-0.14087,1.07104
MPU1,-49.46565,86.90076,-1.79389,-0.42944,-0.74072,0.53149
MPU2,-132.30534,13.61832,-50.13741,-0.20947,-0.22876,0.95337
MPU1,-109.15267,-31.77863,-17.20611,-0.80322,-0.68896,0.36719
MPU2,-122.15267,-29.00763,-33.78626,-0.49243,-0.45337,0.98755
MPU1,-41.50382,23.00763,-23.60305,-0.74243,-1.17310,0.80298
MPU2,-103.75572,-29.00763,-27.51145,-0.15308,-0.40259,1.25952
MPU1,-68.19847,-15.80153,-3.90840,-0.77271,-0.84204,0.67456
MPU2,-90.32061,31.34351,-18.53435,-0.19946,-0.47241,1.37036
MPU1,-55.86259,24.14504,-14.66412,-0.60693,-1.13940,0.86401
MPU2,-45.00763,-25.34351,-8.18321,-0.10645,-0.62158,1.46460
MPU1,-23.15267,-61.40458,5.48855,-1.11157,-1.35205,1.08887
MPU2,34.67176,-38.39695,8.07634,-0.28027,-0.70801,1.53320
MPU1,74.40458,-2.56489,16.96947,-0.56396,-1.49561,1.16797
MPU2,105.77100,18.27481,11.80153,-0.03589,-0.66089,1.59302
MPU1,106.12977,-29.12977,29.77099,-0.77783,-1.30591,0.96704
MPU2,146.61069,-13.23664,29.23664,-0.16602,-0.57422,1.34473
MPU1,121.08397,-36.96947,48.58779,-0.69458,-1.14966,0.77466
MPU2,164.30534,-3.60305,34.39695,-0.14526,-0.47144,1.32349
MPU1,122.30534,-46.63359,44.53435,-0.58447,-1.02856,0.66333
MPU2,183.48091,-21.77099,41.28244,-0.19482,-0.35425,1.00000
MPU1,145.21375,-25.38168,69.97710,-0.49902,-0.80859,0.48730
MPU2,168.16794,14.22901,47.55725,-0.12646,-0.11426,0.97632
MPU1,103.67175,-62.48855,20.74046,-0.32544,-0.53564,0.48633
MPU2,149.00763,-24.53435,43.14504,-0.06055,0.03418,0.73218
MPU1,116.25954,-31.50382,64.78626,-0.40381,-0.34644,0.47681
MPU2,132.13741,14.09160,50.87023,-0.06299,0.22095,0.65649
MPU1,88.33588,-36.08397,58.29008,-0.23853,-0.15063,0.48145
MPU2,119.78626,25.22137,49.95420,-0.01953,0.25220,0.59082
MPU1,141.42747,-14.02290,116.33588,-0.40308,-0.30664,0.67383
MPU2,120.48855,55.67939,54.87023,-0.03394,0.39185,0.56030
MPU1,70.95420,-16.52672,79.06107,-0.10352,0.12500,0.31616
MPU2,78.73283,-13.52672,30.27481,-0.17017,0.44238,0.23633
MPU1,75.77100,-50.38931,13.25191,-0.15796,0.08008,0.57397
MPU2,58.35115,-15.87786,21.32825,0.13257,0.48682,0.30029
MPU1,22.86259,-7.35115,30.48855,0.03809,0.43994,0.26221
MPU2,-4.96183,8.56489,6.64122,0.07324,0.54468,0.21265
MPU1,-20.48092,4.38931,-16.31298,0.09644,0.27197,0.38159
MPU2,-40.07634,-3.64885,-6.54962,0.09058,0.51831,0.15356
MPU1,-51.83969,11.25191,-32.23664,-0.00195,0.34302,0.40869
MPU2,-88.51908,-9.92366,-16.96183,0.07690,0.54395,0.34277
MPU1,-85.83206,23.68702,-47.96947,-0.06836,0.16577,0.51587
MPU2,-117.60305,-8.48855,-22.22901,0.02637,0.47095,0.43579
MPU1,-112.19847,7.58779,-72.93893,-0.16040,-0.05054,0.59106
MPU2,-136.35115,-12.87023,-24.71756,0.05811,0.39209,0.56104
MPU1,-120.61069,41.08397,-54.69466,-0.18213,-0.15967,0.61182
MPU2,-148.07634,12.25954,-35.66412,-0.01733,0.30078,0.84644
MPU1,-113.06870,50.79389,-57.75573,-0.42358,-0.50439,0.79590
MPU2,-135.86259,10.59542,-37.32824,-0.07031,0.18481,0.88159
MPU1,-103.20611,29.11450,-66.35114,-0.43701,-0.57129,0.86694
MPU2,-130.47328,19.77099,-44.13741,0.00488,0.17041,0.98730
MPU1,-101.19084,91.56489,-37.51145,-0.34668,-0.43896,0.54712
MPU2,-141.70993,17.00763,-46.39695,-0.18066,0.01562,0.97656
MPU1,-98.53435,37.18320,-62.06870,-0.62769,-0.78003,0.77173
MPU2,-128.93130,39.51145,-40.80916,-0.08862,-0.07300,0.95557
MPU1,-97.64886,79.20611,-43.54962,-0.40332,-0.60986,0.42822
MPU2,-129.60306,19.52672,-41.54198,-0.24829,-0.24780,0.99487
MPU1,-62.57252,28.16031,-40.80916,-0.75537,-0.93335,0.70239
MPU2,-113.25191,7.02290,-31.55725,-0.19482,-0.29443,1.01611
MPU1,-69.14503,28.79389,-43.37405,-0.47729,-0.77148,0.49536
MPU2,-103.78626,-26.68702,-35.09924,-0.23315,-0.48560,0.93774
MPU1,-44.52672,2.79389,-37.23664,-0.58130,-0.89819,0.53857
MPU2,-94.73283,3.87786,-31.28244,-0.04272,-0.49243,1.20020
MPU1,-24.71756,33.46565,-44.71756,-0.37427,-1.34058,0.82153
MPU2,-51.35878,17.57252,-31.41985,-0.18481,-0.76904,1.45923
MPU1,-26.56489,32.40458,-0.41221,-0.98071,-1.24561,0.81201
MPU2,8.51908,21.11450,13.26718,-0.15405,-0.87769,1.57666
MPU1,42.64122,-34.09160,13.60305,-0.77148,-1.68018,1.29590
MPU2,85.77100,-21.52672,16.18321,-0.01465,-0.75293,1.50488
MPU1,89.65649,-4.15267,33.90076,-0.47095,-1.40649,0.91064
MPU2,132.59541,19.81679,21.25191,-0.08301,-0.70483,1.39551
MPU1,115.90839,-22.25191,37.04580,-0.65137,-1.29370,0.78369
MPU2,156.68703,-21.19084,29.16031,-0.22583,-0.59180,1.25806
MPU1,103.43511,-24.21374,37.24427,-0.52051,-1.04590,0.54175
MPU2,174.44275,4.03053,40.73283,-0.17993,-0.52368,1.06592
MPU1,132.12213,-53.67176,53.71756,-0.64160,-1.03662,0.55713
MPU2,162.22900,-40.73283,43.52672,-0.25757,-0.25000,0.97949
MPU1,88.22137,-49.06107,19.74046,-0.38135,-0.63647,0.27734
MPU2,147.80153,-11.19084,48.38168,-0.13965,-0.17578,0.79346
MPU1,118.09161,-52.54198,68.32061,-0.56104,-0.64136,0.50928
MPU2,148.41222,-35.77099,55.43512,-0.14844,0.08081,0.61450
MPU1,82.38931,-56.22137,36.75573,-0.16455,-0.10693,0.28442
MPU2,85.95420,-24.24427,31.55725,-0.00171,0.23853,0.86768
MPU1,82.47328,-16.42748,76.77100,-0.42554,-0.60815,0.77856
MPU2,132.00000,40.97710,47.35878,-0.01562,0.22729,0.53784
MPU1,79.06870,-28.12214,54.01527,-0.17212,-0.10278,0.46045
MPU2,111.08397,-34.50382,31.08397,-0.11768,0.34570,0.40723
MPU1,134.54962,-63.58779,19.42748,-0.29370,-0.30615,0.76196
MPU2,120.97710,-40.01527,23.57252,0.11206,0.49829,0.42676
MPU1,83.94656,-24.59542,43.55725,-0.06934,0.31616,0.35596
MPU2,62.90076,9.08397,17.41985,0.19434,0.63672,0.32056
MPU1,36.62595,-14.07634,12.36641,0.08667,0.31836,0.54126
MPU2,16.77863,-20.67175,-9.26718,0.11792,0.72754,0.16431
MPU1,-15.07634,8.54962,-16.67939,0.05225,0.63232,0.40771
MPU2,-48.47328,21.17557,-10.77863,0.23853,0.75659,0.17676
MPU1,-75.70992,33.80916,-11.58779,-0.02100,0.53101,0.47437
MPU2,-95.46565,19.09924,-19.98473,0.12622,0.70020,0.22925
MPU1,-90.20611,29.17557,-36.76336,-0.07324,0.14331,0.62769
MPU2,-120.15267,21.45038,-26.45802,0.07764,0.58130,0.35669
MPU1,-133.87022,15.41221,-61.58015,-0.19849,0.06421,0.47852
MPU2,-155.16031,-4.82443,-31.46565,0.00342,0.36816,0.55420
MPU1,-135.94656,43.45038,-47.16031,-0.26929,-0.28931,0.56372
MPU2,-153.57253,33.87786,-27.66412,0.01318,0.24829,0.77710
MPU1,-134.88550,51.77863,-35.75573,-0.36206,-0.50586,0.63184
MPU2,-151.37404,5.80153,-36.87023,-0.05957,0.13892,0.82373
MPU1,-102.51908,43.40458,-56.77863,-0.30200,-0.79639,0.70947
MPU2,-134.99237,15.49618,-35.54198,-0.06079,-0.00659,0.94629
MPU1,-111.99236,8.16794,-48.80916,-0.46729,-0.73560,0.66675
MPU2,-129.00763,-26.19847,-38.83969,-0.12451,-0.07495,0.93652
MPU1,-68.17558,50.77099,-29.03817,-0.37622,-0.82080,0.50391
MPU2,-127.84733,17.83206,-25.20611,-0.08374,-0.22778,1.03027
MPU1,-109.85497,6.63359,-48.55725,-0.36987,-0.94141,0.53516
MPU2,-117.17558,1.87786,-33.60305,-0.14136,-0.35132,1.00513
MPU1,-75.61069,62.13741,-3.61069,-0.59424,-0.90942,0.34473
MPU2,-112.70229,21.64886,-10.24428,-0.18213,-0.44116,0.95068
MPU1,-78.39695,2.18321,-37.90840,-0.39575,-1.05200,0.47900
MPU2,-93.86259,-13.45038,-22.10687,-0.08765,-0.45020,0.86279
MPU1,-45.19084,22.49618,-19.13741,-0.49170,-0.97827,0.35645
MPU2,-91.84733,9.11450,-12.80916,-0.09888,-0.57251,1.04004
MPU1,-63.45038,22.03053,-19.72519,-0.37256,-1.17651,0.46265
MPU2,-58.90076,-0.45802,-16.25954,-0.15283,-0.73853,1.18384
MPU1,-22.88550,18.51145,-7.54198,-0.67310,-1.39160,0.67456
MPU2,-7.34351,-6.45802,-3.17557,-0.08374,-0.73608,1.40430
MPU1,22.67175,-8.62595,-8.87786,-0.48486,-1.54810,0.96484
MPU2,46.68702,-0.71756,-1.60305,0.14478,-0.67041,1.36084
MPU1,59.01527,6.92366,18.27481,-0.37622,-1.38184,0.79248
MPU2,87.48092,11.96947,-1.06870,0.02612,-0.64331,1.30884
MPU1,91.09161,-18.58015,9.14504,-0.52661,-1.35303,0.71924
MPU2,122.06107,-25.64886,4.39695,-0.08667,-0.62329,1.30737
MPU1,112.84733,-25.89313,20.12977,-0.55835,-1.26367,0.59229
MPU2,142.22900,-13.64886,20.25954,-0.14185,-0.55493,1.18384
MPU1,119.90076,-39.87786,36.72519,-0.56470,-1.13989,0.52075
MPU2,161.96947,-29.37405,29.23664,-0.19727,-0.45801,1.10181
MPU1,156.18321,-55.03053,38.90076,-0.54297,-1.10107,0.54858
MPU2,174.16794,-39.92366,33.72519,-0.15918,-0.31934,1.04492
MPU1,149.40459,-51.37405,48.63359,-0.43237,-0.86841,0.42798
MPU2,190.73282,-10.04580,40.10687,-0.03540,-0.15527,0.85181
MPU1,174.19847,-41.66412,74.20611,-0.35229,-0.68823,0.43359
MPU2,188.56488,-29.77099,41.09924,-0.06665,0.04492,0.62402
MPU1,168.67175,-53.86259,61.88550,-0.13892,-0.38892,0.41992
MPU2,167.74046,-11.26718,32.42748,0.13525,0.26196,0.57227
MPU1,151.51909,-36.06107,77.37405,-0.18018,-0.18335,0.51904
MPU2,145.03816,-18.51908,29.74046,0.04785,0.42090,0.55762
MPU1,134.19847,-39.58015,53.25954,-0.14380,-0.07104,0.63232
MPU2,127.93893,-17.96947,27.77099,0.02856,0.47437,0.59570
MPU1,111.67939,-40.96183,27.18321,-0.24341,-0.03833,0.60718
MPU2,122.07633,-68.21374,28.39695,-0.14575,0.49634,0.41187
MPU1,129.43512,-76.45802,5.01527,-0.41138,0.04248,0.70825
MPU2,124.83969,-25.61832,41.09924,0.21484,0.63452,0.34595
MPU1,93.75572,-19.78626,40.38931,0.02661,0.49341,0.39722
MPU2,64.18320,-24.88550,29.63359,0.19189,0.83691,0.03833
MPU1,17.41221,-18.56489,-11.82443,0.18213,0.80298,0.38184
MPU2,1.61832,9.17557,21.19084,0.40747,0.83350,-0.08276
MPU1,-32.74809,0.58779,4.64122,0.20850,0.84424,0.47778
MPU2,-55.08397,14.09160,7.32824,0.44141,0.88354,-0.13428
MPU1,-84.98473,13.54962,-18.73282,0.28223,0.73853,0.47217
MPU2,-115.83206,33.49618,-10.44275,0.41382,0.81836,0.05298
MPU1,-142.64122,48.23664,-30.40458,0.17432,0.56421,0.35034
MPU2,-171.03816,33.60305,-21.89313,0.25488,0.64209,0.14087
MPU1,-182.40459,45.72519,-67.00764,0.12427,0.11475,0.47168
MPU2,-189.90840,68.67175,-24.65649,0.26807,0.48071,0.29419
MPU1,-189.90840,39.09924,-57.31298,-0.18774,-0.16626,0.48389
MPU2,-201.75572,18.64122,-36.58015,0.08032,0.35010,0.59961
MPU1,-179.89313,63.32824,-43.60305,-0.19067,-0.45435,0.55103
MPU2,-190.61069,43.14504,-31.26718,0.05249,0.09521,0.63232
MPU1,-170.17557,32.30534,-72.45038,-0.13965,-0.75659,0.61963
MPU2,-182.29007,16.59542,-36.74809,0.10400,0.04272,0.83838
MPU1,-146.22137,39.92366,-37.76336,-0.39966,-0.83325,0.49805
MPU2,-168.07634,2.67176,-30.19847,-0.10571,-0.21411,1.05396
MPU1,-112.40458,25.96947,-50.35115,-0.28125,-1.01025,0.67773
MPU2,-152.00000,21.41985,-28.21374,-0.01245,-0.20654,0.95068
MPU1,-122.85497,22.60305,-45.24427,-0.38452,-0.93140,0.43799
MPU2,-144.87022,11.19084,-30.56489,-0.02124,-0.38550,1.11572
MPU1,-74.03817,42.84733,-22.97710,-0.30225,-1.16772,0.67310
MPU2,-113.11450,36.12214,-27.67939,0.06714,-0.40283,0.93018
MPU1,-102.19847,46.32824,-44.75573,-0.11304,-0.94971,0.37476
MPU2,-124.01527,28.41221,-42.82443,-0.00586,-0.57202,1.22778
MPU1,-73.73283,57.56488,-14.00763,-0.55225,-1.38281,0.61938
MPU2,-81.34351,32.82443,-22.65649,-0.07422,-0.67358,1.13867
MPU1,-66.00764,16.41985,-44.83969,-0.37012,-1.35376,0.57373
MPU2,-48.24427,24.61069,-17.98473,0.05786,-0.72192,1.44019
MPU1,-24.73282,37.75573,1.51908,-0.44336,-1.58203,0.85181
MPU2,23.45038,23.80153,-8.10687,-0.02466,-0.78320,1.36719
MPU1,44.22901,8.81679,16.31298,-0.50488,-1.55371,0.80493
MPU2,75.96947,11.46565,2.15267,-0.03687,-0.72388,1.39185
MPU1,85.22900,0.45038,37.54962,-0.45679,-1.55127,0.73047
MPU2,133.41985,9.81679,10.06107,-0.08008,-0.73120,1.31616
MPU1,131.13741,-5.98473,54.93893,-0.47681,-1.41968,0.56177
MPU2,163.84734,6.24427,20.76336,-0.13013,-0.63062,1.24072
MPU1,157.80153,-19.97710,72.93893,-0.54053,-1.43384,0.54736
MPU2,211.38931,-3.72519,30.77863,-0.19971,-0.57056,1.12964
MPU1,200.55725,-32.51145,69.65649,-0.45288,-1.31177,0.43677
MPU2,228.00000,-20.22901,38.01527,-0.20264,-0.39429,1.00854
MPU1,205.92366,-42.51145,80.03817,-0.43555,-1.10840,0.33936
MPU2,250.36641,-26.90076,41.26717,-0.18237,-0.21411,0.76904
MPU1,240.96947,-44.29008,81.09161,-0.26929,-0.71899,0.32007
MPU2,230.68703,-32.41221,35.92366,-0.04150,0.15576,0.58716
MPU1,180.05344,-22.40458,61.93893,-0.12622,-0.15967,0.11206
MPU2,186.38168,-7.86260,39.19084,0.08057,0.31006,0.37939
MPU1,164.49619,-35.26717,64.70229,-0.17651,-0.09033,0.41821
MPU2,159.93893,-34.54962,34.38168,0.04834,0.50049,0.32910
MPU1,129.81679,-28.10687,44.96947,-0.12793,0.20264,0.37036
MPU2,118.29008,-23.41985,31.74046,0.13696,0.59570,0.22290
MPU1,91.31298,-20.17557,44.74809,-0.09131,0.45166,0.41138
MPU2,71.31298,-23.86259,25.55725,0.17383,0.76953,0.02563
MPU1,43.22901,-22.04580,14.35878,0.02075,0.69653,0.38574
MPU2,5.86260,2.33588,11.78626,0.28076,0.79395,0.01050
MPU1,-31.58015,3.87786,2.25191,0.04663,0.77075,0.36914
MPU2,-59.48092,25.84733,-0.80916,0.21167,0.81030,0.01172
MPU1,-82.20611,14.16794,-19.30534,-0.01953,0.59497,0.45923
MPU2,-104.03053,19.54198,-12.65649,0.21509,0.77979,0.14404
MPU1,-115.94656,27.74809,-23.61069,-0.09155,0.42920,0.55347
MPU2,-134.00000,37.23664,-19.22137,0.17065,0.68726,0.25806
MPU1,-140.61069,18.76336,-47.06107,-0.13135,0.10327,0.62915
MPU2,-150.47328,28.64122,-26.53435,0.13306,0.55347,0.51025
MPU1,-134.09160,48.52672,-20.41221,-0.32153,-0.13037,0.65845
MPU2,-153.43512,28.96183,-23.08397,-0.06934,0.44702,0.60938
MPU1,-152.90076,24.95420,-63.91603,-0.22974,-0.28516,0.62378
MPU2,-156.56488,29.77099,-28.38168,0.08740,0.28540,0.79517
MPU1,-128.03053,43.53435,-33.41985,-0.35400,-0.62012,0.81030
MPU2,-139.57253,23.35878,-33.11450,-0.03345,0.25366,0.87598
MPU1,-118.32825,41.89313,-46.87023,-0.25293,-0.59692,0.74243
MPU2,-134.10687,24.36641,-46.68702,0.00000,0.12085,0.95630
MPU1,-101.30534,51.04580,-36.67176,-0.49902,-0.72217,0.71655
MPU2,-122.47328,24.47328,-38.62595,-0.12231,0.07739,0.87598
MPU1,-96.30534,28.46565,-49.56488,-0.37866,-0.67041,0.60718
MPU2,-121.16031,9.69466,-47.95420,-0.12500,-0.14014,1.15186
MPU1,-83.31298,49.98473,-39.69466,-0.46973,-0.94214,0.64380
MPU2,-109.34351,37.92366,-42.56488,-0.09521,-0.11499,0.93018
MPU1,-116.58778,48.50382,-52.77099,-0.29858,-0.54663,0.26562
MPU2,-146.90076,22.29008,-61.25191,-0.30176,-0.19678,1.07227
MPU1,-127.57252,38.86259,-70.61069,-0.63867,-1.06470,0.42090
MPU2,-113.05344,8.15267,-34.18320,-0.16187,-0.43896,0.74829
MPU1,-117.13741,36.99237,-66.32825,-0.21899,-0.95044,0.16333
MPU2,-119.80153,4.06107,-38.06107,-0.12842,-0.56348,1.00635
MPU1,-69.18320,22.08397,-32.94656,-0.58447,-1.47852,0.55054
MPU2,-48.77863,5.95420,-22.33588,-0.22510,-0.81006,1.45605
MPU1,-6.00000,8.83206,-8.38931,-0.81152,-1.80981,0.67456
MPU2,31.81679,4.76336,6.42748,-0.27100,-0.83179,1.57397
MPU1,55.69466,-8.36641,38.16031,-0.79248,-1.77148,0.67749
MPU2,109.83206,0.45802,29.28244,-0.29395,-0.76025,1.47266
MPU1,119.84733,-28.66412,59.03053,-0.67773,-1.71997,0.61816
MPU2,171.87787,9.28244,41.25191,-0.23462,-0.72754,1.53345
MPU1,179.14503,-37.19084,92.39695,-0.65137,-1.65552,0.53394
MPU2,220.51909,-5.58779,55.87786,-0.27979,-0.53223,1.18433
MPU1,204.22137,-54.14504,91.49619,-0.49805,-1.31006,0.33862
MPU2,238.06107,-28.58015,63.77099,-0.21167,-0.32617,0.93213
MPU1,222.84734,-70.28244,93.80916,-0.38647,-0.98462,0.29834
MPU2,229.28244,-42.99237,58.76336,-0.16748,-0.05640,0.75977
MPU1,200.26718,-65.82442,75.44275,-0.30811,-0.60864,0.26025
MPU2,214.59541,-32.47328,55.92366,-0.03345,0.16895,0.55176
MPU1,181.56488,-53.54962,82.13741,-0.18921,-0.23999,0.26587
MPU2,170.79390,-36.96183,43.41985,-0.04004,0.36108,0.48755
MPU1,149.81679,-39.09924,51.48092,-0.10425,-0.09644,0.37500
MPU2,148.64122,-30.42748,30.32061,0.05151,0.47949,0.30591
MPU1,117.93130,-23.74809,38.84733,-0.09644,0.12964,0.37964
MPU2,106.87023,-12.03053,23.38931,0.09399,0.56274,0.24854
MPU1,75.79389,-17.08397,26.53435,-0.12256,0.40503,0.39453
MPU2,57.31298,-16.41221,14.99237,0.11572,0.69336,0.09985
MPU1,31.68702,-10.07634,13.97710,-0.03662,0.50977,0.40845
MPU2,4.45802,3.02290,8.00000,0.17407,0.69678,0.04126
MPU1,-26.41985,0.66412,-1.84733,-0.03711,0.62280,0.36548
MPU2,-60.41221,18.09160,-0.35115,0.13916,0.74976,0.11597
MPU1,-85.95420,15.35878,-18.65649,-0.08838,0.51392,0.43506
MPU2,-103.95420,19.20611,-7.16031,0.16675,0.70874,0.16333
MPU1,-109.54198,19.63359,-36.42748,-0.04590,0.25830,0.57104
MPU2,-142.30534,27.05343,-19.80153,0.10376,0.68823,0.33643
MPU1,-149.58778,27.22901,-56.06870,-0.15308,0.11353,0.53564
MPU2,-163.17557,33.64885,-27.77099,0.09424,0.48682,0.49902
MPU1,-152.19084,42.69466,-46.38931,-0.30981,-0.14209,0.55298
MPU2,-181.63359,13.84733,-32.50382,0.00317,0.39722,0.64966
MPU1,-169.43512,47.55725,-73.85497,-0.07983,-0.53442,0.60010
MPU2,-169.86259,31.52672,-35.63359,0.01709,0.17163,0.70020
MPU1,-140.58015,30.78626,-57.96947,-0.39966,-0.67700,0.63110
MPU2,-168.30534,6.21374,-45.48092,-0.03101,0.10083,0.90601
MPU1,-118.44275,43.25954,-38.26717,-0.39355,-0.76318,0.58276
MPU2,-147.43512,2.41221,-32.39695,-0.11768,-0.12354,0.89600
MPU1,-115.87023,20.22901,-42.38931,-0.47632,-1.03613,0.49243
MPU2,-120.00000,23.51145,-34.48855,-0.13599,-0.19922,1.13672
MPU1,-40.69466,26.55725,-18.89313,-0.59546,-0.99976,0.68164
MPU2,-104.21374,-9.09924,-21.23664,-0.24829,-0.24316,0.92627
MPU1,-96.43511,6.51908,-49.96183,-0.29980,-0.79272,0.30005
MPU2,-123.66412,12.70229,-29.14504,-0.10571,-0.29883,1.22583
MPU1,-90.59542,40.25954,-17.84733,-0.56714,-1.08667,0.60278
MPU2,-98.13741,4.30534,-15.25191,-0.24365,-0.45947,1.25977
MPU1,-65.21374,3.17557,-32.58015,-0.62915,-1.37769,0.74121
MPU2,-49.75573,-2.13740,-3.96947,-0.14233,-0.50854,1.38818
MPU1,-20.39695,2.69466,-4.18321,-0.62085,-1.47803,0.83862
MPU2,14.25954,-1.40458,3.92366,-0.13208,-0.56812,1.49438
MPU1,33.66412,-3.54198,16.58015,-0.63306,-1.51172,0.90137
MPU2,76.88550,2.54962,9.49618,-0.13599,-0.54785,1.51294
MPU1,83.66412,-13.54198,33.15267,-0.66260,-1.48364,0.82861
MPU2,128.90076,7.20611,24.83969,-0.15845,-0.54395,1.47217
MPU1,121.18320,-26.70992,55.29008,-0.63403,-1.46387,0.70435
MPU2,170.07634,-11.17557,35.16031,-0.21533,-0.51782,1.34082
MPU1,154.36641,-42.14504,60.35115,-0.48657,-1.29565,0.57300
MPU2,199.29771,-24.93130,44.29008,-0.14307,-0.33545,1.05566
MPU1,192.97710,-55.95420,73.58778,-0.44409,-1.14331,0.51294
MPU2,215.52672,-45.81680,44.83969,-0.15723,-0.09180,0.85693
MPU1,185.02290,-62.77099,53.56488,-0.34937,-0.67651,0.30444
MPU2,187.41985,-48.42748,41.64885,-0.10156,0.08325,0.73926
MPU1,164.20610,-57.24427,42.49618,-0.27905,-0.43677,0.37451
MPU2,172.96184,-41.14504,38.91603,-0.00317,0.21265,0.62720
MPU1,147.93130,-40.11450,52.90076,-0.22339,-0.22656,0.41431
MPU2,155.61832,-24.13741,35.41985,0.08496,0.40698,0.35571
MPU1,133.13741,-33.19847,48.74046,-0.10522,0.04468,0.38525
MPU2,117.49619,-28.83969,26.12214,0.05859,0.50610,0.29785
MPU1,89.22137,-24.77099,28.51145,-0.07739,0.28174,0.38013
MPU2,70.54962,-8.18321,19.23664,0.16406,0.60522,0.18823
MPU1,49.29771,-13.12214,26.14504,-0.07007,0.41211,0.41968
MPU2,23.64886,-4.62595,14.19847,0.16992,0.63037,0.13599
MPU1,-0.90840,-2.72519,10.00000,-0.00244,0.47485,0.41919
MPU2,-28.62595,11.46565,8.58015,0.20093,0.68164,0.13208
MPU1,-52.61069,5.91603,-6.93893,0.00049,0.46631,0.45728
MPU2,-76.97710,19.37405,1.77099,0.21631,0.68726,0.20752
MPU1,-94.53435,15.16794,-18.22137,-0.05737,0.38159,0.53735
MPU2,-117.03817,24.25954,-8.22901,0.21680,0.66138,0.34155
MPU1,-123.87786,31.35878,-29.93130,-0.06812,0.08960,0.63379
MPU2,-133.64885,45.41985,-12.07634,0.14697,0.56470,0.42334
MPU1,-137.56488,25.13741,-37.74809,-0.17212,-0.09399,0.64185
MPU2,-159.06870,32.16794,-23.70992,0.10181,0.47461,0.76172
MPU1,-147.13741,46.40458,-32.38931,-0.32007,-0.42847,0.69824
MPU2,-152.67175,28.65649,-24.13741,-0.00122,0.32275,0.75293
MPU1,-137.05344,32.93893,-54.55725,-0.23120,-0.57275,0.76953
MPU2,-144.06107,25.45038,-28.93130,0.01514,0.20093,0.89893
MPU1,-125.58015,30.90076,-50.44275,-0.41943,-0.63940,0.59595
MPU2,-148.47328,18.54962,-31.92366,-0.01660,0.04883,1.05469
MPU1,-124.00764,45.25954,-41.41221,-0.35620,-0.84106,0.67407
MPU2,-127.41985,26.54962,-28.42748,-0.04810,-0.02222,0.84448
MPU1,-101.82442,25.07634,-49.62595,-0.33203,-0.87524,0.53613
MPU2,-124.93130,5.93893,-34.32061,-0.09473,-0.18262,1.08423
MPU1,-82.04580,38.16031,-36.28244,-0.36230,-0.90845,0.54883
MPU2,-105.38931,20.04580,-25.78626,-0.05786,-0.19409,0.83203
MPU1,-84.25954,35.56488,-25.19847,-0.33228,-0.88330,0.42163
MPU2,-115.02290,15.40458,-27.84733,-0.17871,-0.31421,1.04614
MPU1,-90.13741,22.15267,-33.05344,-0.50537,-0.98486,0.41919
MPU2,-98.42748,5.40458,-15.12977,-0.11426,-0.43408,1.07593
MPU1,-56.33588,22.51908,-3.90076,-0.40283,-1.08325,0.53223
MPU2,-93.63359,33.19084,-16.27481,-0.02100,-0.37183,1.20825
MPU1,-86.44275,19.45802,-33.29771,-0.37549,-1.26489,0.47681
MPU2,-48.19847,1.14504,-6.30534,-0.14185,-0.77246,1.32227
MPU1,-1.00763,1.77863,3.35878,-0.66089,-1.86914,0.80737
MPU2,40.27481,-0.61069,5.63359,-0.19678,-0.82910,1.56299
MPU1,52.04580,-5.22137,29.06107,-0.63647,-1.61255,0.67212
MPU2,97.55725,1.12977,18.21374,-0.21973,-0.70972,1.45386
MPU1,100.60305,-24.64122,47.27481,-0.68506,-1.66406,0.63013
MPU2,154.77863,-1.74046,34.09160,-0.23267,-0.68701,1.37109
MPU1,141.07634,-41.62595,54.16794,-0.59302,-1.51562,0.44556
MPU2,185.67938,-17.19084,39.72519,-0.21387,-0.55420,1.21948
MPU1,155.64885,-53.06107,65.62595,-0.57690,-1.36230,0.32446
MPU2,219.06870,-21.55725,53.12977,-0.23730,-0.44458,0.94702
MPU1,196.39694,-68.77863,61.55725,-0.42847,-1.12085,0.22778
MPU2,226.62596,-46.19847,52.41221,-0.16235,-0.20850,0.73389
MPU1,202.13741,-68.72519,58.29008,-0.24585,-0.70020,0.19751
MPU2,206.62596,-50.10687,43.40458,-0.02588,0.04639,0.54199
MPU1,191.91603,-54.36641,51.51908,-0.12842,-0.39453,0.28125
MPU2,192.50381,-47.43512,30.94657,0.06274,0.27734,0.35596
MPU1,171.00000,-36.65649,42.39695,-0.05908,-0.01855,0.29492
MPU2,148.32062,-32.82443,21.45038,0.13574,0.49023,0.31128
MPU1,120.12214,-17.77099,40.63359,-0.02539,0.22974,0.37622
MPU2,102.03053,-11.35878,12.41221,0.16772,0.61133,0.18750
MPU1,84.61832,-16.83206,10.34351,-0.04395,0.37280,0.47754
MPU2,48.83969,-27.32825,4.54962,0.13354,0.71704,0.12817
MPU1,25.29771,-1.26718,6.41985,-0.13232,0.59570,0.36816
MPU2,-16.70229,2.12214,3.72519,0.19897,0.75415,0.15845
MPU1,-44.62595,7.46565,-6.93893,-0.02808,0.51904,0.45728
MPU2,-71.95420,22.50382,-2.68702,0.19336,0.76855,0.18384
MPU1,-93.84733,16.58779,-20.54962,-0.09253,0.42456,0.52979
MPU2,-114.39695,29.61832,-10.42748,0.16528,0.70142,0.27905
MPU1,-116.87023,25.90840,-20.93130,-0.18604,0.19604,0.55737
MPU2,-144.61069,30.29008,-13.35878,0.11572,0.57690,0.33203
MPU1,-148.06107,27.57252,-45.98473,-0.08423,-0.08447,0.52051
MPU2,-164.68703,42.32061,-19.90840,0.05811,0.39307,0.60645
MPU1,-140.90076,31.80153,-22.27481,-0.43433,-0.29736,0.55688
MPU2,-170.79390,21.28244,-23.29771,-0.01392,0.22803,0.67651
MPU1,-134.46565,37.98473,-51.54198,-0.17505,-0.68677,0.58594
MPU2,-161.96947,32.83969,-23.46565,-0.02417,0.09473,0.78003
MPU1,-112.21374,20.20611,-34.12977,-0.42773,-0.56128,0.55591
MPU2,-167.58778,10.03053,-30.53435,-0.03223,0.00391,0.94800
MPU1,-125.38931,55.06870,-34.29771,-0.29297,-0.89429,0.48291
MPU2,-155.32825,47.29771,-29.28244,-0.13013,-0.18945,0.89136
MPU1,-76.70992,10.30534,-44.02290,-0.39893,-0.94409,0.60498
MPU2,-157.08397,9.48092,-33.23664,-0.13086,-0.36914,1.13477
MPU1,-78.95420,34.76336,-37.41985,-0.41626,-1.03027,0.44238
MPU2,-143.00763,2.33588,-22.70229,-0.17944,-0.46606,0.86987
MPU1,-96.14503,4.44275,-49.35878,-0.35547,-1.14526,0.47583
MPU2,-125.26717,9.72519,-30.45802,-0.12549,-0.59692,1.33057
MPU1,-80.01527,28.82443,-14.32061,-0.65015,-1.23071,0.63208
MPU2,-84.61069,14.48855,-0.35115,-0.17383,-0.69263,1.30127
MPU1,-29.28244,-4.03053,0.70229,-0.61011,-1.63330,0.91406
MPU2,-11.28244,25.32825,6.82443,-0.16479,-0.74390,1.71460
MPU1,11.71756,23.67175,27.75573,-0.63843,-1.57446,1.11987
MPU2,64.97710,22.77863,9.08397,-0.13794,-0.62646,1.49365
MPU1,74.58015,8.34351,41.45038,-0.59082,-1.44873,0.95312
MPU2,120.67175,17.17557,20.10687,-0.18677,-0.61353,1.40234
MPU1,113.64886,-19.99237,64.56489,-0.76636,-1.38867,0.78198
MPU2,164.73282,-6.82443,34.64122,-0.26318,-0.56348,1.27637
MPU1,141.93893,-33.21374,78.14503,-0.71973,-1.25049,0.57471
MPU2,185.72519,-20.41221,51.52672,-0.33374,-0.47510,1.21362
MPU1,164.29771,-60.08397,79.68702,-0.67285,-1.20483,0.59717
MPU2,212.29007,-33.11450,64.39695,-0.27490,-0.29541,1.02051
MPU1,180.96947,-85.95420,78.42748,-0.61255,-0.95410,0.43555
MPU2,211.48091,-64.42748,65.96947,-0.21997,-0.06201,0.82568
MPU1,172.77863,-76.21374,69.97710,-0.31445,-0.57349,0.31421
MPU2,200.68703,-46.38168,61.14504,-0.00659,0.13354,0.57104
MPU1,160.36641,-62.08397,74.77100,-0.20557,-0.31958,0.34839
MPU2,180.67175,-29.98473,55.45038,-0.08472,0.27441,0.53076
MPU1,142.61832,-55.39695,52.67176,-0.23071,-0.10693,0.42285
MPU2,151.57253,-30.71756,50.65649,-0.02124,0.45996,0.39087
MPU1,103.46565,-53.67939,26.08397,-0.18213,0.15088,0.31567
MPU2,119.40458,-53.57252,55.93893,0.08252,0.46997,0.15747
MPU1,119.39695,-70.82442,46.81680,-0.20190,0.19922,0.50342
MPU2,94.41222,-43.43512,51.16031,0.21240,0.63354,0.16650
MPU1,53.62595,-33.45038,36.70229,0.11182,0.60986,0.26709
MPU2,20.96183,13.41985,34.50382,0.34985,0.71826,0.11694
MPU1,-27.76336,0.53435,25.87023,0.20044,0.67432,0.36182
MPU2,-44.77863,32.03053,14.42748,0.35205,0.72681,-0.01953
MPU1,-76.04580,13.86260,-8.02290,0.23120,0.67041,0.41040
MPU2,-106.87023,33.90840,-8.45802,0.36206,0.76880,0.07129
MPU1,-142.51144,46.69466,-34.52672,0.21240,0.51660,0.38452
MPU2,-158.77863,60.47328,-29.29771,0.37378,0.67041,0.20947
MPU1,-168.39694,55.87023,-54.34351,0.07739,0.10156,0.60840
MPU2,-183.35878,69.80153,-43.98473,0.25000,0.55933,0.35767
MPU1,-196.25191,78.90076,-55.38931,-0.14233,-0.02393,0.35132
MPU2,-212.88550,62.87023,-55.17557,0.08057,0.34155,0.62378
MPU1,-179.39694,69.65649,-66.36641,-0.23657,-0.72852,0.79175
MPU2,-181.09924,58.70229,-63.55725,0.04956,0.17725,0.73730
MPU1,-177.96947,79.49619,-62.33588,-0.36963,-0.54541,0.42871
MPU2,-189.63359,58.29008,-70.83969,-0.07861,0.01855,0.97876
MPU1,-128.50381,64.25954,-72.09161,-0.47656,-1.08374,0.73975
MPU2,-155.22137,20.35114,-66.62595,-0.19434,-0.11328,0.82080
MPU1,-148.83969,57.97710,-44.93130,-0.56006,-0.69287,0.16772
MPU2,-163.54199,14.70229,-50.58015,-0.27075,-0.37134,0.91260
MPU1,-61.30534,19.49618,-64.06107,-0.29663,-1.32739,0.62842
MPU2,-121.28244,-2.56489,-58.12214,-0.08667,-0.34326,0.90601
MPU1,-102.30534,50.08397,-43.32061,-0.36865,-0.90186,0.12988
MPU2,-118.88550,24.87023,-45.84733,-0.06836,-0.61328,1.00146
MPU1,-41.90840,51.31298,-35.66412,-0.29053,-1.44214,0.56470
MPU2,-84.83969,17.89313,-46.64122,-0.17285,-0.67847,1.33594
MPU1,-45.42748,26.59542,-25.80916,-0.82739,-1.37598,0.56274
MPU2,-30.16794,-1.11450,-17.95420,-0.30811,-0.80249,1.36621
MPU1,7.71756,-4.84733,-4.58779,-0.81934,-1.52222,0.74268
MPU2,25.06870,-11.31298,11.20611,-0.19580,-0.75391,1.45532
MPU1,38.41985,-28.39695,16.79389,-0.62817,-1.43213,0.78857
MPU2,78.13741,-28.39695,21.28244,-0.11646,-0.63428,1.37671
MPU1,86.98473,-40.25954,28.24427,-0.54175,-1.45923,0.82471
MPU2,122.07633,-19.78626,22.94657,-0.07153,-0.57861,1.41431
MPU1,118.41985,-38.32824,45.25191,-0.55103,-1.36182,0.74097
MPU2,166.90076,-21.93893,26.15267,-0.15845,-0.53345,1.34204
MPU1,170.40459,-38.18320,71.79389,-0.64282,-1.44458,0.73047
MPU2,213.38931,5.14504,33.54198,-0.11792,-0.38672,1.22510
MPU1,192.12213,-29.52672,89.44275,-0.46216,-1.12109,0.54150
MPU2,240.25954,-40.19847,40.06107,-0.21460,-0.22827,0.84399
MPU1,226.64885,-70.13741,72.38931,-0.46265,-0.84766,0.40405
MPU2,222.27481,-43.86259,42.61069,-0.03394,0.04419,0.83472
MPU1,180.01527,-50.12977,76.17558,-0.26807,-0.42188,0.28906
MPU2,199.41985,-47.58779,40.04580,-0.05225,0.15918,0.53638
MPU1,194.87022,-73.54962,64.32825,-0.23706,-0.34692,0.48706
MPU2,178.24428,-39.49618,31.67939,0.04272,0.35254,0.51172
MPU1,143.19084,-42.51908,65.96947,-0.17993,0.05566,0.29321
MPU2,142.91603,-26.62595,29.14504,0.03320,0.46265,0.31616
MPU1,126.48092,-52.96183,40.96183,-0.08911,0.14160,0.49316
MPU2,108.24428,-31.32825,21.23664,0.17041,0.58081,0.26855
MPU1,79.09161,-20.27481,39.92366,0.00586,0.38647,0.40283
MPU2,67.19084,7.55725,16.62595,0.18506,0.63745,0.21826
MPU1,44.78626,-17.09160,25.71756,-0.03369,0.45435,0.46045
MPU2,22.32061,-16.13741,13.61832,0.13379,0.68750,0.04736
MPU1,-13.28244,0.29008,6.01527,0.08472,0.66187,0.27710
MPU2,-38.70229,25.19084,10.67176,0.22852,0.71338,0.04053
MPU1,-67.67939,11.70992,-12.62595,0.08374,0.59570,0.39771
MPU2,-93.41985,27.14504,6.50382,0.22925,0.68286,0.10303
MPU1,-124.35878,23.66412,-25.48092,0.05811,0.47437,0.35156
MPU2,-143.16031,30.00000,0.70229,0.22412,0.62769,0.19922
MPU1,-153.17557,54.00000,-31.77863,0.06104,0.25610,0.35229
MPU2,-191.12978,37.08397,-13.29771,0.21118,0.45557,0.20117
MPU1,-183.22137,24.51145,-92.67939,0.29492,-0.28027,0.58179
MPU2,-196.29007,55.09924,-60.56488,0.44067,0.25732,0.55103
MPU1,-180.56488,157.81679,-52.77863,0.21973,-0.20996,0.33203
MPU2,-230.01527,118.09161,-98.76336,0.01587,0.27905,0.58008
MPU1,-197.55725,98.57252,-103.27481,-0.58618,-0.69604,0.45044
MPU2,-212.38168,42.73283,-86.00000,-0.17773,-0.04614,0.80298
MPU1,-163.56488,101.95420,-81.29008,-0.57642,-0.94434,0.57666
MPU2,-197.51144,38.96183,-86.22900,-0.28809,-0.16699,1.18262
MPU1,-125.29771,67.69466,-71.70229,-0.96704,-1.25415,0.74731
MPU2,-151.08397,4.83969,-58.19847,-0.31738,-0.34009,1.14819
MPU1,-70.19847,48.23664,-47.27481,-0.69312,-0.94946,0.52637
MPU2,-133.06870,-0.42748,-40.22901,-0.39917,-0.47339,1.14429
MPU1,-46.09924,-16.80153,-58.41221,-0.84766,-1.19849,0.72925
MPU2,-109.95420,-34.22901,-19.49618,-0.17700,-0.46753,1.11475
MPU1,-50.80916,-0.93893,-30.87786,-0.40503,-1.01440,0.58374
MPU2,-84.85497,6.45802,-25.55725,-0.11279,-0.57764,1.23657
MPU1,-23.74046,28.29771,3.58015,-0.72534,-1.41382,0.94019
MPU2,7.19084,27.48092,-10.44275,-0.27588,-0.85229,1.55786
MPU1,57.87023,24.06870,34.14504,-0.92969,-1.53027,1.11401
MPU2,85.16031,21.54198,13.54198,-0.26465,-0.71289,1.57642
MPU1,77.51145,-17.78626,51.47328,-0.90576,-1.36377,0.94092
MPU2,144.54962,-11.11450,43.95420,-0.33032,-0.69922,1.36230
MPU1,123.04580,-47.51145,64.42748,-0.70483,-1.31982,0.80762
MPU2,175.22137,-8.54962,52.45802,-0.19897,-0.51489,1.32935
MPU1,103.38168,-29.39695,67.98473,-0.58228,-1.03467,0.54663
MPU2,177.12978,-11.45038,61.40458,-0.24780,-0.43921,1.08545
MPU1,150.75572,-62.04580,81.26717,-0.64893,-1.10400,0.67163
MPU2,197.84734,-38.21374,73.90839,-0.19849,-0.21240,0.96191
MPU1,151.67938,-65.61069,109.11450,-0.52930,-0.79932,0.49536
MPU2,207.69466,-41.75573,76.27481,-0.15796,0.02002,0.73267
MPU1,175.29007,-94.63359,66.50381,-0.32837,-0.65308,0.52173
MPU2,191.12978,-47.35878,61.54198,-0.03174,0.22974,0.79810
MPU1,142.67175,-56.10687,79.53435,-0.28076,-0.21753,0.41553
MPU2,174.19847,-31.17557,61.19084,-0.03345,0.31372,0.51782
MPU1,147.35115,-81.19847,50.74046,-0.23755,-0.16577,0.51489
MPU2,152.51909,-55.45038,48.82443,0.07520,0.45215,0.47900
MPU1,130.06870,-56.99237,61.95420,-0.14038,0.03979,0.50635
MPU2,133.28244,-28.71756,43.29771,0.13770,0.55859,0.27417
MPU1,109.19084,-51.35115,42.45802,-0.00537,0.29663,0.47729
MPU2,94.54962,-31.69466,30.88550,0.18652,0.61963,0.18457
MPU1,69.03053,-30.35878,37.29008,0.00488,0.46191,0.39038
MPU2,59.37405,-6.87023,19.66412,0.21069,0.66064,0.08838
MPU1,33.28244,-11.09924,12.08397,0.07446,0.56958,0.38354
MPU2,10.96183,-7.51145,9.46565,0.22437,0.71094,0.03638
MPU1,-10.43511,0.30534,14.64886,0.03369,0.62329,0.38208
MPU2,-34.36641,18.15267,7.34351,0.28369,0.68872,-0.01074
MPU1,-62.74046,13.06870,-22.05343,0.20264,0.63452,0.38257
MPU2,-95.83206,28.06107,-13.48092,0.30786,0.75879,0.10718
MPU1,-120.94656,49.58779,-21.40458,0.04492,0.58398,0.39771
MPU2,-136.79390,55.63359,-20.74809,0.23657,0.71704,0.12622
MPU1,-130.42747,55.84733,-64.84733,0.22876,0.21802,0.56470
MPU2,-164.76335,58.96183,-44.36641,0.38062,0.59644,0.25073
MPU1,-169.93130,107.09924,-44.44275,0.03735,0.15771,0.41333
MPU2,-206.30534,54.24427,-68.58015,0.13184,0.51294,0.39429
MPU1,-198.18321,95.31298,-104.07633,0.01831,-0.37451,0.48975
MPU2,-204.39694,80.82442,-85.06870,0.08496,0.15869,0.82300
MPU1,-164.15266,91.54962,-90.23664,-0.57227,-0.76978,0.69336
MPU2,-182.25954,15.20611,-79.64886,-0.18164,0.11670,0.81445
MPU1,-151.25191,64.96183,-106.06107,-0.47656,-0.77881,0.54297
MPU2,-171.37404,34.24427,-72.71756,-0.16675,-0.08911,1.13232
MPU1,-122.19847,55.35878,-82.38931,-0.68213,-1.00732,0.68018
MPU2,-149.60306,-2.12214,-57.83206,-0.26489,-0.15356,0.97803
MPU1,-115.19084,37.57252,-68.36641,-0.64478,-0.90698,0.45654
MPU2,-137.00763,10.80916,-44.96183,-0.28687,-0.23633,1.03271
MPU1,-102.14503,23.49618,-65.99236,-0.55542,-0.91162,0.48877
MPU2,-132.22900,-4.59542,-34.61069,-0.19312,-0.36133,1.04712
MPU1,-76.83206,17.49618,-50.39695,-0.52905,-1.14746,0.49854
MPU2,-119.25191,-10.48855,-25.74046,-0.21362,-0.43945,1.05054
MPU1,-104.69466,10.25954,-70.77100,-0.32471,-0.96240,0.33618
MPU2,-100.30534,-5.87786,-31.83206,-0.08936,-0.54102,1.02393
MPU1,-35.65649,25.46565,-25.17557,-0.46533,-1.44116,0.64502
MPU2,-48.65649,22.36641,-30.83969,-0.13184,-0.68774,1.26440
MPU1,-21.78626,48.41985,-10.46565,-0.43774,-1.29858,0.52344
MPU2,0.53435,43.46565,-17.70992,-0.14917,-0.76709,1.29004
MPU1,37.34351,24.11450,24.10687,-0.72339,-1.61646,0.78955
MPU2,65.58778,19.14504,3.09924,-0.22656,-0.74658,1.46582
MPU1,72.34351,11.17557,53.09160,-0.71899,-1.48877,0.70605
MPU2,120.53435,25.61832,27.08397,-0.25073,-0.72070,1.43311
MPU1,118.17558,-11.15267,81.39695,-0.75000,-1.56934,0.71045
MPU2,174.96184,10.79389,49.20611,-0.33105,-0.68726,1.38892
MPU1,155.16031,-32.72519,100.45802,-0.76270,-1.46875,0.56079
MPU2,208.09160,5.55725,66.85497,-0.33789,-0.52808,1.28369
MPU1,165.97710,-53.78626,110.48855,-0.68457,-1.23901,0.36646
MPU2,220.44275,-23.63359,88.45802,-0.33862,-0.35742,0.96826
MPU1,187.06870,-89.00000,109.90076,-0.51538,-0.94800,0.34717
MPU2,203.02290,-46.33588,92.03053,-0.08105,0.08618,0.70679
MPU1,133.64885,-79.40458,93.62595,-0.24097,-0.30688,0.20679
MPU2,155.52672,-54.65649,82.38168,-0.07446,0.20044,0.55469
MPU1,140.93130,-92.22137,69.93130,-0.18945,-0.38696,0.53418
MPU2,147.26718,-45.57252,60.93130,0.01001,0.34204,0.55688
MPU1,95.22900,-34.43512,78.86259,-0.19531,-0.01880,0.34155
MPU2,115.11450,33.86259,48.00000,0.04028,0.40869,0.53711
MPU1,93.84733,-41.93130,56.29771,-0.22314,-0.13672,0.61914
MPU2,114.96183,-44.79389,36.58015,-0.09570,0.38892,0.27588
MPU1,105.22900,-30.16794,50.06870,-0.26831,-0.03516,0.47021
MPU2,99.78626,-0.97710,35.02290,0.02075,0.46021,0.47266
MPU1,82.61832,-23.43511,54.74809,-0.24780,0.06592,0.48901
MPU2,85.90839,-1.20611,39.31298,-0.00342,0.51050,0.31323
MPU1,60.80153,-29.84733,55.07634,-0.19922,0.33008,0.43530
MPU2,33.46565,-4.73282,34.00000,0.16528,0.69336,0.16431
MPU1,-8.40458,-15.76336,7.41221,0.22852,0.62646,0.37598
MPU2,-34.00000,14.01527,12.09160,0.37427,0.78955,0.01123
MPU1,-70.74809,9.85496,-5.04580,0.19409,0.76465,0.41357
MPU2,-100.97710,35.06870,-9.52672,0.35742,0.83008,0.04663
MPU1,-128.90076,43.83969,-42.64122,0.20190,0.58154,0.41162
MPU2,-159.14503,27.51145,-32.90076,0.27075,0.68359,0.14746
MPU1,-163.06107,52.69466,-63.08397,0.03833,0.15698,0.51709
MPU2,-183.34351,44.10687,-48.42748,0.17578,0.52759,0.36157
MPU1,-172.09924,58.44275,-81.84733,-0.11670,-0.22192,0.55005
MPU2,-193.35878,39.51145,-57.67939,0.06128,0.29150,0.64624
MPU1,-155.59541,70.75572,-54.89313,-0.41309,-0.57837,0.57910
MPU2,-179.34351,27.66412,-56.79389,-0.09253,0.19531,0.73389
MPU1,-144.98473,68.34351,-70.22137,-0.31177,-0.61816,0.58057
MPU2,-167.09924,41.03817,-55.60305,-0.15552,0.00977,0.90967
MPU1,-110.09161,45.83206,-53.19084,-0.57617,-0.92212,0.71094
MPU2,-141.03816,7.66412,-62.94656,-0.12402,0.02124,0.94727
MPU1,-91.55725,64.96947,-55.77099,-0.45288,-0.76074,0.48120
MPU2,-146.67175,39.11450,-49.67939,-0.30444,-0.23438,1.10596
MPU1,-87.36641,32.92366,-46.28244,-0.71338,-0.99780,0.69043
MPU2,-116.29008,5.95420,-43.43512,-0.15479,-0.14551,0.90869
MPU1,-66.25191,41.61832,-35.46565,-0.33423,-0.64600,0.43970
MPU2,-138.74809,26.36641,-49.49618,-0.17505,-0.37329,1.11230
MPU1,-81.16794,43.65649,-47.03817,-0.65503,-1.29663,0.66870
MPU2,-95.96947,1.14504,-38.54962,-0.28174,-0.52173,1.14502
MPU1,-59.06107,22.92366,-33.80153,-0.71338,-1.14990,0.59570
MPU2,-60.56488,10.27481,-27.46565,-0.23706,-0.62720,1.40356
MPU1,-19.60305,22.74809,-15.51145,-0.71143,-1.42261,0.82324
MPU2,0.22901,16.56489,-13.09924,-0.25781,-0.70605,1.42554
MPU1,22.28244,14.29008,21.22137,-0.89185,-1.41821,0.74854
MPU2,55.61832,8.45802,15.16031,-0.31885,-0.70166,1.35107
MPU1,58.70992,-26.35114,31.53435,-0.76318,-1.34961,0.70947
MPU2,97.00764,-5.96947,33.66412,-0.24951,-0.62695,1.24072
MPU1,76.58778,-36.68702,53.74809,-0.68384,-1.21924,0.55078
MPU2,128.36641,-7.31298,47.83206,-0.26831,-0.57837,1.17358
MPU1,101.99236,-49.67939,63.70229,-0.63745,-1.15112,0.49854
MPU2,141.19084,-18.85496,57.09924,-0.27710,-0.43799,1.14917
MPU1,107.92367,-63.38931,68.38168,-0.63037,-1.03809,0.47852
MPU2,149.40459,-33.63359,65.08397,-0.25464,-0.27539,1.06616
MPU1,125.17558,-71.83206,67.28244,-0.52002,-0.89111,0.54346
MPU2,161.96947,-32.25954,65.43511,-0.15088,-0.09497,0.88184
MPU1,123.93130,-75.51145,60.31298,-0.46387,-0.68750,0.45703
MPU2,156.65649,-42.85496,62.70229,-0.14233,0.05420,0.76978
MPU1,121.27481,-69.06870,77.29771,-0.48071,-0.49390,0.49219
MPU2,154.32062,-18.01527,60.67176,-0.09546,0.20605,0.74683
MPU1,123.83969,-48.82443,77.59542,-0.33008,-0.36206,0.54004
MPU2,147.98473,-15.58779,52.59542,-0.06201,0.30688,0.61646
MPU1,120.62595,-46.26717,72.05344,-0.22314,-0.14648,0.54272
MPU2,125.09924,0.74809,41.05344,0.15039,0.47144,0.43652
MPU1,90.86259,-14.95420,54.79389,0.03931,0.09326,0.50928
MPU2,90.32061,8.27481,28.68702,0.14478,0.49634,0.35669
MPU1,76.88550,-9.62595,63.28244,-0.11255,0.14282,0.53076
MPU2,66.90076,-9.83206,18.87023,-0.02173,0.56494,0.36963
MPU1,55.96183,-20.21374,10.00000,-0.12158,0.14917,0.50220
MPU2,46.16794,-0.01527,18.70229,0.10010,0.52075,0.27783
MPU1,29.45038,-8.78626,28.85496,-0.12744,0.34692,0.47095
MPU2,-2.97710,-2.25954,3.55725,0.12231,0.69727,0.22583
MPU1,-23.09160,7.96947,-18.13741,0.13232,0.55176,0.43628
MPU2,-70.76336,9.02290,-22.19847,0.25293,0.71704,0.16675
MPU1,-90.61069,43.45038,-43.35115,0.15063,0.51221,0.33130
MPU2,-141.38931,26.99237,-45.51145,0.21216,0.63086,0.14429
MPU1,-150.72519,54.67176,-89.22900,0.11475,0.26270,0.33252
MPU2,-198.33588,31.22137,-65.72519,0.17285,0.47534,0.28735
MPU1,-185.41985,69.82442,-99.46565,-0.05029,-0.07910,0.26294
MPU2,-231.57253,3.03817,-83.40458,-0.00830,0.24194,0.51758
MPU1,-193.25191,82.83206,-112.37405,-0.25977,-0.58813,0.40161
MPU2,-228.91603,54.53435,-79.19084,0.03955,0.03662,0.67822
MPU1,-200.41222,80.93893,-133.41222,-0.30127,-0.89331,0.36475
MPU2,-224.56488,-33.43512,-91.28244,-0.32935,-0.19385,1.01172
MPU1,-129.43512,55.16794,-80.77863,-0.83716,-1.17358,0.63086
MPU2,-191.57253,39.43512,-60.56488,-0.19312,-0.41626,1.29126
MPU1,-154.48856,79.54198,-81.89313,-0.62476,-1.27271,0.37085
MPU2,-155.05344,-13.70992,-57.08397,-0.37207,-0.51953,0.96875
MPU1,-91.03817,14.50382,-63.12214,-0.83203,-1.21704,0.41748
MPU2,-135.61832,-5.87786,-35.61832,-0.24951,-0.60278,1.26660
MPU1,-107.53435,46.28244,-45.12214,-0.54614,-1.29883,0.35254
MPU2,-92.71756,6.67176,-23.05343,-0.23145,-0.74097,1.10522
MPU1,-53.01527,-6.05344,-35.05344,-0.75684,-1.42188,0.49561
MPU2,-46.45802,-9.63359,-8.16794,-0.17554,-0.80859,1.33813
MPU1,-10.42748,12.43511,6.35115,-0.64893,-1.58984,0.60181
MPU2,23.43511,18.99237,4.22901,-0.16113,-0.84985,1.30176
MPU1,37.95420,2.53435,29.16794,-0.60815,-1.44849,0.48828
MPU2,61.41985,15.96947,16.19847,-0.14893,-0.74634,1.17700
MPU1,60.29008,-13.74046,38.48855,-0.53027,-1.25195,0.41284
MPU2,89.23664,-0.06107,23.87786,-0.17578,-0.64819,1.06372
MPU1,83.96183,-27.02290,50.81680,-0.55591,-1.19702,0.37500
MPU2,115.49619,4.12214,34.51908,-0.21069,-0.63232,1.07178
MPU1,102.40458,-35.58779,65.32061,-0.63916,-1.21167,0.32520
MPU2,139.63359,-8.09160,50.48855,-0.34766,-0.64868,1.11182
MPU1,127.41222,-54.95420,90.32061,-0.76270,-1.25610,0.32715
MPU2,172.65649,3.70992,63.45038,-0.24072,-0.46899,1.12817
MPU1,149.13741,-55.80916,94.90076,-0.57910,-1.14380,0.45825
MPU2,190.13741,-20.01527,65.90839,-0.18726,-0.26489,0.97388
MPU1,164.93130,-63.72519,93.62595,-0.38452,-0.90503,0.48267
MPU2,195.86259,-17.75573,65.16031,-0.16895,-0.07568,0.94116
MPU1,169.83969,-73.53435,89.92367,-0.61011,-0.86084,0.55054
MPU2,215.69466,-22.90076,69.95420,-0.10742,0.07031,0.84546
MPU1,205.21375,-85.32825,107.22137,-0.47485,-0.74707,0.59546
MPU2,239.63359,-35.32824,65.95420,-0.11060,0.08936,0.83423
MPU1,237.26718,-59.22137,128.28244,-0.31299,-0.62598,0.44849
MPU2,250.59541,-7.52672,58.29008,0.06055,0.28906,0.40576
MPU1,234.39694,-52.87023,114.64122,-0.02271,-0.22241,0.22656
MPU2,227.55725,-14.00000,49.78626,-0.03784,0.35303,0.15454
MPU1,238.52672,-50.76336,90.49619,-0.09619,0.10498,0.08667
MPU2,190.53435,-34.38168,52.58015,-0.02661,0.53809,-0.14062
MPU1,194.83206,-60.22901,58.19084,-0.00391,0.52441,-0.13062
MPU2,133.66412,-38.51908,53.80153,0.00781,0.74561,-0.36743
MPU1,103.96183,-39.24427,47.12977,0.07397,1.21997,-0.24927
MPU2,22.06107,-13.26718,34.33588,0.31299,1.00635,-0.50952
MPU1,-53.02290,2.63359,-17.00000,0.66113,1.62988,-0.26587
MPU2,-94.41222,41.03817,-21.38931,0.68018,1.07129,-0.42944
MPU1,-150.09160,81.54962,-52.36641,0.66187,1.09985,0.18677
MPU2,-155.75572,73.16031,-71.12977,0.44263,0.94092,-0.28491
MPU1,-192.49619,72.54198,-119.36641,0.16455,0.63452,0.24609
MPU2,-206.48856,49.45038,-84.85497,0.19385,0.67896,-0.09741
MPU1,-210.46565,72.85497,-112.07633,-0.21191,0.27148,0.19360
MPU2,-236.74809,-1.28244,-82.79389,-0.00122,0.55957,0.11060
MPU1,-205.06870,59.18320,-132.34351,-0.23730,-0.13818,0.34424
MPU2,-259.40457,11.80153,-69.37405,-0.06055,0.26245,0.38354
MPU1,-247.12978,0.88550,-198.00763,-0.21704,-0.59521,0.44067
MPU2,-268.58014,-54.33588,-71.14503,-0.01953,0.18091,0.64038
MPU1,-229.29007,16.17557,-116.67939,-0.53345,-0.66846,0.30103
MPU2,-262.87024,-75.83206,-57.19084,-0.33472,-0.11035,0.95093
MPU1,-226.83206,4.90076,-176.98473,-0.08203,-0.97461,0.45459
MPU2,-242.58015,0.44275,-45.84733,0.18115,-0.24365,0.76587
MPU1,-239.54962,29.20611,-129.96947,-0.42969,-1.25024,0.13623
MPU2,-243.72519,-36.73283,-52.00000,-0.29834,-0.43945,0.93481
MPU1,-213.96947,-4.45038,-147.62596,-0.33008,-1.16650,0.20190
MPU2,-213.84734,-54.06107,-28.39695,0.07275,-0.76074,0.77563
MPU1,-170.28244,12.71756,-116.78626,0.03125,-1.61035,0.18970
MPU2,-185.51144,-18.06107,-43.67939,0.00879,-0.83057,1.03931
MPU1,-150.78625,10.80916,-123.41222,-0.13721,-1.32666,0.03149
MPU2,-180.90076,-38.04580,-31.66412,-0.04590,-0.82983,0.66382
MPU1,-150.41222,-14.36641,-93.93130,-0.04492,-1.29346,-0.15723
MPU2,-148.04581,-39.35878,-26.83969,0.14087,-1.03052,0.62476
MPU1,-110.00764,-5.77099,-104.35878,0.29492,-1.34180,-0.20361
MPU2,-140.47328,-44.67176,-27.98473,0.19824,-1.12280,0.63037
MPU1,-127.37405,-15.60305,-106.45802,0.27783,-1.25439,-0.39331
MPU2,-99.52672,-36.18320,-19.22137,0.32935,-1.22583,0.49780
MPU1,-33.83206,19.13741,-61.35115,0.40894,-1.49854,-0.06763
MPU2,-55.45038,-14.47328,-26.88550,0.40601,-1.16431,0.72559
MPU1,-49.65649,32.00000,-40.22137,0.35376,-1.26416,-0.38550
MPU2,-15.14504,10.91603,-19.96947,0.41992,-1.19287,0.60791
MPU1,47.93893,27.61832,-3.24427,0.32471,-1.69482,0.14551
MPU2,63.81680,0.32061,-3.78626,0.40503,-1.27075,0.72437
MPU1,67.38168,16.19847,43.79389,0.37158,-1.44385,-0.24756
MPU2,117.02290,71.08397,9.81679,0.56177,-1.35645,0.92603
MPU1,135.86259,41.74809,109.80916,0.37427,-1.67456,0.01953
MPU2,167.63359,58.24427,16.24427,0.32788,-1.25732,0.83813
MPU1,144.03816,21.29008,137.30534,0.20264,-1.61792,-0.20483
MPU2,213.70993,83.00764,37.06870,0.26685,-1.32471,0.86597
MPU1,217.87787,37.38931,184.75572,0.33618,-2.00000,0.06299
MPU2,274.38168,60.12214,32.04580,0.02930,-1.13989,0.92773
MPU1,239.53435,17.61832,185.97710,0.06519,-1.61792,-0.13916
MPU2,299.54199,98.47328,41.26717,0.16626,-0.92798,0.91699
MPU1,250.12978,-2.26718,193.83969,0.00391,-1.85645,0.27246
MPU2,343.03818,11.35878,30.85496,-0.04199,-0.52417,0.60498
MPU1,250.12978,14.02290,193.73282,0.06665,-0.97510,-0.24170
MPU2,343.23663,105.92367,35.46565,0.15308,-0.30835,0.61255
MPU1,250.12978,28.65649,215.45038,0.06250,-0.94946,0.07129
MPU2,318.54962,47.37405,32.94656,-0.09009,-0.03442,0.33643
MPU1,250.12978,-9.51908,162.87022,-0.06787,-0.60840,0.06567
MPU2,289.49619,24.16794,29.80153,-0.12134,0.20972,0.22681
MPU1,250.12978,9.58015,179.66412,-0.21167,-0.11523,-0.04150
MPU2,230.24428,65.32825,41.16031,-0.10034,0.47339,0.15063
MPU1,237.04581,-15.03053,144.87022,-0.17822,0.28540,0.07837
MPU2,164.24428,-0.70229,56.73283,-0.18945,0.66748,-0.02393
MPU1,181.25191,-39.73283,124.24428,-0.29858,0.67163,-0.04492
MPU2,112.88550,-3.41985,76.00000,-0.12207,0.77954,-0.18164
MPU1,138.76335,-94.72519,91.16794,-0.25586,0.80664,0.12158
MPU2,50.97710,4.65649,65.17558,0.22534,0.86401,-0.15869
MPU1,97.92367,-42.67939,114.33588,0.12524,1.02026,-0.01587
MPU2,18.15267,25.09924,32.41221,0.12329,0.97803,-0.40674
MPU1,-23.35114,-35.12214,-7.86260,0.70093,1.31616,-0.20996
MPU2,-66.48855,1.34351,-30.62595,0.35645,0.98145,-0.40381
MPU1,-130.57253,80.64886,-74.82442,0.69971,1.27710,-0.40723
MPU2,-153.34351,73.52672,-62.29008,0.35181,0.90747,-0.14233
MPU1,-218.00763,95.95420,-104.38931,0.20898,0.59473,0.09790
MPU2,-192.85497,102.56489,-86.90076,0.12500,0.75928,-0.15137
MPU1,-222.42747,102.45802,-96.95420,-0.25586,0.47754,0.12158
MPU2,-222.01527,27.34351,-92.09161,-0.22925,0.63428,0.11426
MPU1,-212.96184,119.66412,-89.19084,-0.39233,0.01465,0.20801
MPU2,-225.80153,15.17557,-88.25954,-0.34595,0.43555,0.32056
MPU1,-235.12978,18.59542,-168.29771,-0.56421,-0.16724,0.49463
MPU2,-220.10687,22.61069,-64.25954,-0.08276,0.31055,0.59351
MPU1,-206.45038,32.63359,-119.12977,-0.41895,-0.23999,0.38965
MPU2,-235.93893,-123.72519,-71.31298,-0.51050,0.18188,0.72192
MPU1,-235.59541,-12.16794,-169.18321,-0.50757,-0.57324,0.47070
MPU2,-231.22137,26.24427,-45.54198,0.07593,-0.04639,0.69019
MPU1,-205.18321,43.21374,-127.03053,-0.08496,-0.80371,0.41138
MPU2,-246.19847,-76.03053,-75.45038,-0.26953,-0.28955,0.83032
MPU1,-201.38168,4.70229,-136.11450,-0.54102,-1.11157,0.24194
MPU2,-231.83206,-65.80153,-57.64885,-0.13477,-0.60376,0.74854
MPU1,-205.10687,-26.39695,-184.06870,0.08887,-1.21899,0.18970
MPU2,-237.37404,-110.07633,-71.08397,-0.03711,-0.96509,0.93408
MPU1,-195.74046,11.49618,-149.12978,-0.21655,-1.49707,0.07275
MPU2,-199.38931,-10.79389,-42.59542,0.15112,-1.05200,0.72900
MPU1,-139.67175,-15.45038,-105.49619,-0.21094,-1.68042,0.18384
MPU2,-179.08397,-85.96947,-44.77863,-0.06470,-1.15186,0.88232
MPU1,-157.89313,5.77863,-104.11450,-0.13062,-1.38306,-0.12158
MPU2,-157.54199,-33.77099,-28.48855,0.05640,-1.15918,0.77051
MPU1,-145.30534,-11.23664,-83.91603,-0.28247,-1.50146,-0.04907
MPU2,-98.19847,-46.01527,-16.16794,0.12134,-1.20093,0.72949
MPU1,-37.15267,-26.96183,-56.03053,-0.14185,-1.69165,0.37598
MPU2,-27.45038,-45.90840,-0.36641,0.23535,-1.13940,0.88672
MPU1,45.35115,-33.03817,-0.55725,-0.18262,-1.73828,0.51440
MPU2,79.35878,-3.78626,15.43511,0.30151,-1.19189,0.81519
MPU1,191.09160,-61.78626,56.80916,-0.24121,-1.65698,0.46582
MPU2,134.73282,-32.24427,21.61832,0.21313,-1.10107,1.07324
MPU1,168.97710,-3.76336,63.54962,0.12451,-1.45239,0.26050
MPU2,164.24428,70.42748,13.92366,0.34082,-1.04785,1.15186
MPU1,154.23665,59.61832,98.75572,-0.02563,-1.52490,0.44043
MPU2,205.11450,67.95420,20.50382,0.08325,-1.06323,1.04736
MPU1,188.76335,22.11450,94.52672,-0.25830,-1.62476,0.51538
MPU2,229.83206,47.41985,34.91603,0.03906,-0.99561,1.20581
MPU1,195.66412,8.38168,126.51145,-0.39697,-1.70801,0.46826
MPU2,274.03055,49.19084,54.18320,-0.09595,-0.94653,1.07129
MPU1,228.26718,18.91603,170.77863,-0.44458,-1.53784,0.29297
MPU2,279.52670,118.07633,78.94656,-0.02075,-0.67236,1.09595
MPU1,210.18321,8.25954,215.12213,-0.49683,-1.15356,0.36182
MPU2,286.94656,57.51145,105.64886,-0.24194,-0.41895,0.63086
MPU1,237.36641,-36.13741,190.87787,-0.24951,-0.94800,0.29004
MPU2,263.20612,46.45802,107.02290,-0.06348,-0.04126,0.56982
MPU1,204.74809,-58.23664,199.05344,-0.29053,-0.46533,0.17065
MPU2,245.46565,19.20611,109.92367,-0.11816,0.15503,0.29761
MPU1,213.70993,-73.90076,156.62596,-0.10767,-0.26929,0.32300
MPU2,208.09160,2.07634,95.86259,0.04761,0.37720,0.32056
MPU1,172.67175,-50.38931,154.14503,-0.02856,0.14648,0.16064
MPU2,176.04581,50.73283,93.83206,0.07324,0.50806,0.23047
MPU1,142.66412,-21.86259,156.70229,0.03394,0.34668,0.29492
MPU2,121.37405,29.17557,90.42748,0.05225,0.66016,0.16479
MPU1,163.47328,-64.77863,136.83969,-0.19873,0.24390,0.59009
MPU2,119.37405,11.05344,94.01527,-0.01978,0.75171,0.21826
MPU1,151.39694,-81.67175,143.07634,-0.21777,0.50854,0.39575
MPU2,110.50381,-17.46565,103.49619,0.11475,0.78149,0.04248
MPU1,141.15266,-107.87023,124.36641,0.29858,0.80371,0.06177
MPU2,60.97710,-33.84733,68.76336,0.61328,0.91064,-0.38452
MPU1,23.20611,-88.99236,14.60305,1.28223,1.14575,-0.25317
MPU2,-23.84733,-28.59542,-14.27481,0.73853,0.93579,-0.36523
MPU1,-73.16031,50.09160,-67.51145,1.08740,1.11890,-0.33154
MPU2,-87.25191,79.81680,-63.98473,0.46167,0.82349,-0.17139
MPU1,-126.07633,135.05344,-74.15267,0.38184,0.76807,-0.00513
MPU2,-113.66412,86.47328,-88.74809,0.23608,0.79785,-0.14453
MPU1,-131.38931,114.63359,-90.98473,0.04980,0.58301,0.27417
MPU2,-124.50381,60.64122,-96.53435,0.18286,0.76318,-0.03198
MPU1,-110.00000,124.57252,-95.46565,0.00049,0.50562,0.35547
MPU2,-137.02290,47.52672,-102.64122,-0.01636,0.77612,0.26733
MPU1,-145.22137,83.91603,-109.67175,-0.34741,0.37524,0.57764
MPU2,-130.85497,53.20611,-97.84733,-0.05029,0.66455,0.23657
MPU1,-114.48092,68.29008,-117.19084,-0.37891,0.34741,0.55029
MPU2,-139.51144,-48.54962,-101.29771,-0.18506,0.64136,0.44556
MPU1,-101.48855,22.64886,-124.56489,-0.36865,0.09546,0.69702
MPU2,-159.31297,-30.48855,-99.22137,-0.17920,0.40405,0.64282
MPU1,-141.11450,33.00000,-146.12978,-0.30762,0.01831,0.57812
MPU2,-184.04581,4.35115,-111.52672,-0.00537,0.38867,0.56592
MPU1,-178.74046,88.19847,-137.51144,-0.16870,-0.10059,0.30908
MPU2,-213.12978,-70.68702,-124.01527,-0.35449,0.13550,0.71680
MPU1,-198.56488,5.33588,-139.30534,-0.71729,-0.49707,0.60791
MPU2,-210.03053,-8.18321,-93.64886,-0.10205,-0.04150,0.75732
MPU1,-211.58015,90.33588,-153.64885,-0.37891,-0.67676,0.39282
MPU2,-222.48856,-46.18320,-110.74809,-0.37231,-0.09619,0.79956
MPU1,-170.06107,17.03817,-102.77863,-1.05151,-1.05396,0.69360
MPU2,-202.51909,-38.36641,-76.88550,-0.30664,-0.47388,1.45923
MPU1,-164.89313,117.03817,-147.32825,-0.27197,-1.29370,0.61157
MPU2,-178.51909,-49.96947,-98.00000,-0.33545,-0.40576,0.94800
MPU1,-117.00764,-8.46565,-109.43511,-1.08301,-1.27563,0.57056
MPU2,-150.83969,-56.29008,-57.57252,-0.30469,-0.65723,0.92627
MPU1,-172.67175,29.80153,-134.03816,-0.24341,-0.79590,-0.19580
MPU2,-197.32825,-96.35114,-56.21374,-0.06763,-0.79199,0.64673
MPU1,-193.96184,-9.19847,-138.25191,-0.25830,-1.34766,0.01758
MPU2,-172.65649,-58.82443,-55.06870,0.07129,-0.97363,0.66431
MPU1,-165.82443,-5.83969,-107.15267,-0.19971,-1.32593,-0.15283
MPU2,-129.20610,-109.93893,-43.41985,0.20361,-1.29736,0.59814
MPU1,-45.34351,-25.65649,-90.36641,-0.09546,-2.00000,0.31982
MPU2,-29.48092,7.40458,-28.12214,0.38013,-1.39209,1.14551
MPU1,-0.10687,45.50382,6.41985,-0.35938,-1.52539,0.03442
MPU2,15.48092,27.02290,-4.32061,0.08301,-1.14331,0.75903
MPU1,-5.02290,0.50382,-19.35878,-0.16577,-1.25781,-0.15649
MPU2,70.85497,3.48092,6.36641,0.24365,-1.23511,0.72241
MPU1,96.86259,11.88550,52.06870,-0.24316,-1.75171,0.23291
MPU2,137.96947,91.87786,21.40458,0.26099,-1.31030,1.04980
MPU1,141.83969,13.29771,102.51145,-0.38428,-1.71631,0.03638
MPU2,197.43512,55.35878,42.35115,-0.02686,-1.25098,0.82666
MPU1,195.77863,-32.23664,91.75572,-0.29980,-1.76685,-0.02612
MPU2,240.85497,25.06870,53.02290,-0.01440,-1.18286,0.93286
MPU1,233.27481,-39.97710,117.11450,-0.28003,-1.67041,-0.02222
MPU2,257.40457,53.22137,62.65649,0.04492,-0.89551,1.03027
MPU1,243.04581,-28.54962,158.26718,-0.37183,-1.44531,0.04370
MPU2,283.67938,70.36641,85.75572,-0.00269,-0.68896,0.80200
MPU1,250.12978,-46.17557,170.75572,-0.34204,-1.29663,0.09155
MPU2,275.74045,51.52672,93.00764,-0.09302,-0.32202,0.72485
MPU1,235.58015,-76.87023,144.77863,-0.28271,-0.85181,0.05859
MPU2,274.88550,3.96947,90.22900,-0.11475,-0.09326,0.41577
MPU1,243.36641,-75.88550,137.51144,-0.20605,-0.43921,0.12085
MPU2,213.06870,-17.69466,79.83206,-0.03662,0.29443,0.44287
MPU1,190.29007,-54.37405,104.61069,0.02051,-0.16895,0.21826
MPU2,181.34351,52.77863,69.84733,0.10303,0.42163,0.27979
MPU1,127.68702,-12.22901,131.53435,-0.05249,0.36011,0.11719
MPU2,95.17558,37.23664,59.28244,-0.03906,0.60181,0.19092
MPU1,54.92366,-17.84733,63.74046,0.02563,0.41113,0.32495
MPU2,51.54198,11.09924,50.68702,0.04443,0.63965,0.23315
MPU1,40.26717,-44.15267,59.28244,-0.36255,0.28955,0.73462
MPU2,38.35115,-30.91603,52.32061,-0.09790,0.72534,0.48779
MPU1,53.70229,-78.16031,52.00000,-0.46484,0.10278,0.92627
MPU2,85.06870,-11.20611,63.89313,-0.02417,0.61792,0.47339
MPU1,111.95420,-65.80153,98.68702,-0.40503,0.19824,0.89185
MPU2,94.83969,-9.98473,65.96947,-0.04272,0.81055,0.40161
MPU1,108.70229,-65.66412,75.32061,-0.07397,0.40942,0.67676
MPU2,91.87786,-11.29771,63.95420,0.31885,0.79980,0.00122
MPU1,136.99237,-73.62595,78.45038,0.48462,0.65283,0.47754
MPU2,26.19847,-53.28244,17.83206,0.50781,0.99878,-0.28833
MPU1,-10.43511,-34.32061,-60.25191,1.24365,1.20654,-0.01367
MPU2,-81.58778,-14.90076,-59.54198,0.69092,0.98022,-0.14111
MPU1,-123.51908,107.56489,-86.95420,0.84473,0.93311,-0.03735
MPU2,-154.41222,84.65649,-97.75572,0.41382,0.81323,-0.03027
MPU1,-188.61069,161.56488,-111.48092,0.27026,0.54980,0.11523
MPU2,-203.14503,86.91603,-117.58778,0.20142,0.68335,-0.01074
MPU1,-220.56488,160.16794,-134.66412,-0.09351,0.17920,0.18066
MPU2,-233.67938,32.10687,-130.96184,-0.11084,0.51733,0.16919
MPU1,-200.93130,117.88550,-150.97710,-0.44336,-0.27026,0.38770
MPU2,-223.26718,-20.77863,-119.48092,-0.26929,0.19116,0.47339
MPU1,-206.13741,85.59542,-162.25954,-0.54736,-0.40356,0.44092
MPU2,-222.70229,14.59542,-104.67175,-0.10107,0.16406,0.77295
MPU1,-167.93130,72.32825,-134.32825,-0.77222,-0.85645,0.62256
MPU2,-191.89313,-103.14503,-92.59542,-0.57568,-0.10815,0.82935
MPU1,-158.75572,4.05344,-158.17557,-0.65723,-0.64819,0.44116
MPU2,-195.78625,-32.58015,-52.29008,-0.02734,-0.29810,1.12354
MPU1,-148.13741,52.41985,-97.73283,-0.48730,-1.17773,0.59180
MPU2,-169.22137,-7.77099,-54.47328,-0.19067,-0.29761,0.99390
MPU1,-168.03053,26.41985,-111.70229,-0.38184,-0.82690,0.30225
MPU2,-175.08397,-90.74809,-49.57252,-0.30981,-0.60693,0.89600
MPU1,-145.82443,-58.20611,-160.54199,-0.58081,-1.25830,0.36279
MPU2,-155.03816,-119.48092,-21.51145,-0.01709,-0.61572,0.82812
MPU1,-139.45801,-84.07633,-128.48856,-0.28198,-1.06128,0.12842
MPU2,-139.03816,-152.97710,12.91603,0.07812,-0.92505,0.82056
MPU1,-46.38931,-100.62595,-77.10687,-0.02222,-1.55640,0.39185
MPU2,-103.23664,-78.27481,25.51145,0.27856,-0.86475,0.95288
MPU1,-118.47328,-83.64886,-71.48092,0.00098,-1.01855,-0.06665
MPU2,-125.16031,-120.59542,15.38931,0.22632,-0.84082,0.75952
MPU1,-131.99237,-56.09924,-85.97710,0.29272,-1.15063,-0.00977
MPU2,-102.76336,-47.89313,16.77863,0.49854,-0.97461,0.49463
MPU1,-78.85497,-36.26717,-17.38931,0.14453,-1.26514,0.05005
MPU2,-88.68702,-41.57252,11.49618,0.34106,-0.97290,0.60767
MPU1,-86.75572,-27.21374,-51.05344,0.32446,-1.28979,-0.09473
MPU2,-62.87023,-27.80153,0.24427,0.37671,-1.05493,0.58789
MPU1,-37.05344,4.53435,0.67176,0.06909,-1.33301,0.02563
MPU2,-12.85496,41.11450,-13.83206,0.51855,-1.06445,0.64526
MPU1,22.89313,72.28244,13.91603,0.43726,-1.48682,0.08423
MPU2,52.16794,97.48092,-32.10687,0.58667,-1.13867,0.68921
MPU1,107.80916,111.80153,68.61069,0.22119,-1.58740,0.17822
MPU2,107.81680,120.58015,-36.87023,0.42529,-1.14502,0.80933
MPU1,142.33588,108.67175,77.07633,0.11426,-1.58594,0.14087
MPU2,168.50381,130.12213,-22.68702,0.32739,-1.16064,0.83716
MPU1,187.58015,89.94656,112.47328,-0.05835,-1.52539,0.13574
MPU2,190.79390,132.96184,-2.80916,0.20947,-1.00269,0.93506
MPU1,190.28244,74.01527,136.54199,-0.20435,-1.47510,0.19824
MPU2,220.73282,112.80916,26.13741,0.00220,-0.91211,0.91992
MPU1,204.73282,57.19847,155.73282,-0.31519,-1.33374,0.19531
MPU2,217.14503,120.80916,55.31298,-0.10303,-0.72339,1.00830
MPU1,187.51909,20.76336,170.96184,-0.54346,-1.21973,0.29492
MPU2,229.70993,90.68702,82.74809,-0.24170,-0.49976,0.79541
MPU1,178.44275,-12.70229,160.03053,-0.51660,-0.97119,0.21973
MPU2,213.06870,31.92366,98.71756,-0.29883,-0.30518,0.74268
MPU1,188.09160,-75.29771,135.32825,-0.50854,-0.90039,0.40674
MPU2,223.35878,8.27481,96.47328,-0.20068,-0.05786,0.70557
MPU1,185.22900,-68.99236,139.55725,-0.43677,-0.51929,0.30005
MPU2,204.24428,-12.54962,94.29008,-0.25562,0.17676,0.64233
MPU1,175.50381,-92.28244,103.90076,-0.33643,-0.36914,0.44092
MPU2,197.09924,-19.60305,90.18320,-0.09448,0.33350,0.53784
MPU1,167.98473,-68.96947,116.94656,-0.28052,-0.09644,0.38892
MPU2,172.53435,0.76336,91.23664,-0.06055,0.47998,0.48853
MPU1,142.54962,-72.41985,104.88550,-0.24097,0.08301,0.45874
MPU2,151.32825,-31.95420,93.98473,-0.01270,0.59619,0.19629
MPU1,128.83969,-88.58015,92.87023,-0.14844,0.30884,0.46313
MPU2,124.58015,14.64122,91.31298,0.26294,0.72070,0.18457
